Folder: Nanoindentation_Analysis/Nanoindentation Datenauswertung/data/PDMS/09.09

File: EM-PDMS-110-10-110, 20nms,2,2um
Quasi static measurement routine
Tip parameters (shape,radius, material...)
09.09.2022

Piezo position[nm]	MEMS displ.[nm]	Time[ms]	Cap [pf]	Temp [°C]	Rh [%]
eoh
0,492052	-0,086780	0,188	-0,075798	22,560000	53,805000
0,519095	0,101822	1,540	-0,075718	22,550000	53,815000
0,546106	0,039340	2,894	-0,075745	22,550000	53,815000
0,573058	-0,039340	4,248	-0,075778	22,550000	53,815000
0,600118	-0,078680	5,602	-0,075794	22,540000	53,815000
0,627119	0,242984	6,957	-0,075659	22,540000	53,815000
0,654040	0,031241	8,310	-0,075748	22,550000	53,800000
0,681142	0,219842	9,661	-0,075668	22,540000	53,800000
0,708123	0,149261	11,014	-0,075698	22,540000	53,800000
0,735120	0,016199	12,364	-0,075754	22,550000	53,800000
0,762049	0,008099	13,720	-0,075758	22,560000	53,790000
0,789089	-0,023141	15,072	-0,075771	22,560000	53,790000
0,816090	0,062481	16,424	-0,075735	22,550000	53,815000
0,843083	-0,078680	17,778	-0,075794	22,550000	53,815000
0,870067	-0,109921	19,131	-0,075808	22,550000	53,815000
0,897083	-0,203643	20,485	-0,075847	22,540000	53,800000
0,924113	0,039340	21,836	-0,075745	22,540000	53,800000
0,951113	-0,031241	23,190	-0,075774	22,540000	53,800000
0,978087	0,415386	24,543	-0,075586	22,550000	53,775000
1,005081	-0,305465	25,896	-0,075890	22,560000	53,790000
1,032121	-0,203643	27,246	-0,075847	22,560000	53,790000
1,059091	-0,093722	28,597	-0,075801	22,540000	53,815000
1,086076	-0,093722	29,948	-0,075801	22,540000	53,815000
1,113077	-0,219842	31,300	-0,075854	22,540000	53,815000
1,140112	-0,329763	32,653	-0,075900	22,550000	53,840000
1,167098	-0,133062	34,007	-0,075817	22,550000	53,785000
1,194099	-0,109921	35,364	-0,075808	22,550000	53,785000
1,221078	-0,086780	36,716	-0,075798	22,550000	53,785000
1,248052	-0,266125	38,071	-0,075874	22,560000	53,820000
1,275037	0,282324	39,425	-0,075642	22,560000	53,820000
1,302093	0,180502	40,776	-0,075685	22,560000	53,820000
1,329079	0,047440	42,130	-0,075741	22,560000	53,820000
1,356103	0,047440	43,482	-0,075741	22,540000	53,825000
1,383089	-0,101822	44,834	-0,075804	22,540000	53,825000
1,410040	0,008099	46,188	-0,075758	22,550000	53,800000
1,437062	-0,118021	47,542	-0,075811	22,560000	53,805000
1,464036	-0,211743	48,897	-0,075851	22,560000	53,805000
1,491058	-0,149261	50,251	-0,075824	22,550000	53,815000
1,518089	0,234884	51,604	-0,075662	22,560000	53,790000
1,545066	-0,078680	52,956	-0,075794	22,560000	53,790000
1,572019	-0,062481	54,311	-0,075788	22,560000	53,790000
1,599062	-0,149261	55,666	-0,075824	22,550000	53,785000
1,626060	-0,376046	57,017	-0,075920	22,550000	53,785000
1,653029	-0,180502	58,370	-0,075837	22,550000	53,785000
1,680039	-0,259182	59,723	-0,075871	22,550000	53,825000
1,706999	-0,321664	61,075	-0,075897	22,550000	53,825000
1,734055	-0,226785	62,426	-0,075857	22,550000	53,825000
1,761018	-0,329763	63,776	-0,075900	22,550000	53,825000
1,788060	-0,290423	65,128	-0,075884	22,550000	53,825000
1,815055	-0,336706	66,481	-0,075903	22,560000	53,820000
1,842037	-0,211743	67,832	-0,075851	22,550000	53,785000
1,869032	-0,266125	69,185	-0,075874	22,550000	53,785000
1,895973	-0,305465	70,538	-0,075890	22,550000	53,815000
1,923011	-0,384145	71,890	-0,075923	22,550000	53,825000
1,950011	-155,058223	73,242	-0,141196	22,550000	53,825000
1,976990	-149,643161	74,597	-0,138911	22,550000	53,840000
2,003994	-134,648761	75,951	-0,132583	22,550000	53,840000
2,031014	-116,661036	77,303	-0,124992	22,550000	53,840000
2,058026	-99,809547	78,656	-0,117881	22,560000	53,790000
2,084995	-84,956309	80,008	-0,111613	22,550000	53,785000
2,111981	-66,356496	81,361	-0,103764	22,550000	53,785000
2,139010	-51,675661	82,715	-0,097568	22,550000	53,800000
2,166020	-34,809131	84,068	-0,090451	22,550000	53,825000
2,193039	-17,345555	85,422	-0,083081	22,550000	53,825000
2,219989	-0,274224	86,774	-0,075877	22,550000	53,825000
2,247014	16,922069	88,126	-0,068620	22,540000	53,815000
2,274022	34,315064	89,476	-0,061280	22,540000	53,815000
2,301028	52,161628	90,828	-0,053749	22,540000	53,815000
2,327996	71,208068	92,180	-0,045711	22,550000	53,815000
2,355041	88,381220	93,533	-0,038464	22,550000	53,800000
2,381989	106,987976	94,885	-0,030612	22,550000	53,800000
2,408943	124,428410	96,238	-0,023252	22,550000	53,785000
2,435984	144,226942	97,591	-0,014897	22,550000	53,815000
2,462995	162,787415	98,942	-0,007065	22,550000	53,815000
2,490004	178,839372	100,296	-0,000291	22,550000	53,815000
2,517004	197,422986	101,653	0,007551	22,550000	53,815000
2,544009	216,508766	103,004	0,015605	22,550000	53,815000
2,571002	233,931844	104,359	0,022958	22,560000	53,790000
2,597994	253,088205	105,713	0,031042	22,550000	53,800000
2,624984	271,445035	107,064	0,038789	22,550000	53,800000
2,651955	292,277982	108,417	0,047580	22,550000	53,855000
2,678999	309,686019	109,769	0,054926	22,550000	53,815000
2,690913	317,829439	111,123	0,058363	22,550000	53,815000
2,691004	316,552040	112,475	0,057824	22,550000	53,815000
2,690998	315,470185	113,827	0,057367	22,550000	53,815000
2,690977	314,694951	115,178	0,057040	22,550000	53,815000
2,690973	314,248325	116,533	0,056852	22,550000	53,785000
2,690958	313,511274	117,884	0,056541	22,550000	53,800000
2,690953	313,213909	119,235	0,056415	22,550000	53,800000
2,688046	312,508099	120,586	0,056117	22,560000	53,820000
2,660943	290,828181	121,939	0,046968	22,560000	53,820000
2,634024	270,739225	123,290	0,038491	22,560000	53,820000
2,606963	249,545274	124,642	0,029547	22,550000	53,800000
2,579981	229,754841	125,995	0,021195	22,550000	53,800000
2,552935	209,963252	127,349	0,012843	22,550000	53,800000
2,526019	189,632470	128,702	0,004264	22,550000	53,825000
2,498987	168,469759	130,055	-0,004667	22,540000	53,840000
2,471991	149,987967	131,410	-0,012466	22,560000	53,820000
2,445011	128,181928	132,761	-0,021668	22,560000	53,820000
2,418028	109,747575	134,114	-0,029448	22,560000	53,820000
2,391023	90,105247	135,465	-0,037737	22,550000	53,825000
2,363919	69,632146	136,817	-0,046376	22,550000	53,825000
2,336980	53,258525	138,169	-0,053286	22,550000	53,825000
2,310038	34,055882	139,524	-0,061390	22,550000	53,800000
2,282985	15,628471	140,877	-0,069166	22,550000	53,800000
2,256017	-3,065064	142,231	-0,077055	22,540000	53,815000
2,229054	-22,189027	143,583	-0,085125	22,560000	53,830000
2,201961	-43,046273	144,935	-0,093927	22,560000	53,830000
2,174998	-60,313148	146,286	-0,101213	22,540000	53,840000
2,148024	-77,988466	147,638	-0,108672	22,550000	53,775000
2,121042	-99,025057	148,994	-0,117550	22,550000	53,775000
2,094012	-116,033907	150,345	-0,124728	22,540000	53,800000
2,067043	-133,190860	151,698	-0,131968	22,550000	53,825000
2,040039	-151,296607	153,052	-0,139608	22,550000	53,825000
2,013020	-170,515449	154,402	-0,147719	22,550000	53,785000
1,986059	-189,992317	155,754	-0,155938	22,560000	53,820000
1,959046	-205,660128	157,108	-0,162550	22,560000	53,820000
1,932061	-224,251842	158,461	-0,170396	22,540000	53,825000
1,905061	-242,287008	159,813	-0,178006	22,540000	53,825000
1,878041	-261,146003	161,166	-0,185965	22,540000	53,825000
1,851034	-276,350989	162,520	-0,192381	22,550000	53,815000
1,824049	-295,131304	163,872	-0,200307	22,550000	53,825000
1,797046	-312,468759	165,223	-0,207623	22,550000	53,825000
1,770061	-327,689944	166,574	-0,214046	22,550000	53,825000
1,743061	-346,211076	167,928	-0,221862	22,550000	53,785000
1,715998	-360,931252	169,282	-0,228074	22,550000	53,785000
1,689054	-376,850146	170,634	-0,234792	22,550000	53,825000
1,662084	-394,947793	171,988	-0,242429	22,550000	53,825000
1,635113	-410,216417	173,341	-0,248873	22,550000	53,825000
1,608042	-426,488216	174,692	-0,255739	22,540000	53,825000
1,581064	-442,139829	176,044	-0,262344	22,540000	53,800000
1,554019	-457,275391	177,398	-0,268731	22,540000	53,800000
1,527076	-475,514199	178,748	-0,276428	22,540000	53,800000
1,500087	-489,418644	180,103	-0,282296	22,550000	53,825000
1,473047	-503,268707	181,456	-0,288141	22,550000	53,800000
1,446057	-518,207568	182,808	-0,294445	22,550000	53,800000
1,419030	-534,847314	184,160	-0,301467	22,550000	53,785000
1,392069	-546,824089	185,512	-0,306521	22,540000	53,800000
1,365066	-558,871445	186,863	-0,311605	22,540000	53,800000
1,338081	-574,138913	188,215	-0,318048	22,540000	53,800000
1,311093	-586,813398	189,567	-0,323396	22,550000	53,785000
1,284079	-598,476609	190,919	-0,328318	22,550000	53,785000
1,257068	-614,160619	192,270	-0,334937	22,550000	53,800000
1,230071	-622,899928	193,623	-0,338625	22,550000	53,785000
1,203121	-635,753758	194,975	-0,344049	22,550000	53,785000
1,176090	-648,748750	196,330	-0,349533	22,550000	53,785000
1,149060	-659,103321	197,685	-0,353903	22,550000	53,785000
1,122082	-668,234875	199,037	-0,357756	22,550000	53,785000
1,095037	-680,727701	200,390	-0,363028	22,550000	53,785000
1,068123	-687,813564	201,744	-0,366019	22,550000	53,785000
1,041030	-694,162378	203,096	-0,368698	22,550000	53,785000
1,014072	-698,394920	204,448	-0,370484	22,550000	53,785000
0,987098	-696,467250	205,802	-0,369670	22,550000	53,785000
0,960056	-689,240225	207,155	-0,366621	22,550000	53,785000
0,933069	-0,713909	208,506	-0,076063	22,550000	53,785000
0,906079	-0,548449	209,858	-0,075993	22,550000	53,815000
0,879112	-0,266125	211,208	-0,075874	22,550000	53,815000
0,852097	-0,242984	212,560	-0,075864	22,550000	53,825000
0,825083	-0,344805	213,913	-0,075907	22,540000	53,800000
0,798058	-0,234884	215,266	-0,075860	22,540000	53,800000
0,771098	-0,195544	216,618	-0,075844	22,540000	53,800000
0,744125	-0,259182	217,971	-0,075871	22,540000	53,825000
0,717046	-0,164303	219,325	-0,075831	22,540000	53,825000
0,690107	0,000000	220,677	-0,075761	22,540000	53,785000
0,663080	-0,282324	222,028	-0,075880	22,560000	53,820000
0,636109	-0,016199	223,378	-0,075768	22,560000	53,820000
0,609078	-0,156204	224,730	-0,075827	22,550000	53,785000
0,582046	0,047440	226,084	-0,075741	22,550000	53,760000
0,555064	-0,109921	227,438	-0,075808	22,550000	53,800000
0,528072	-0,086780	228,791	-0,075798	22,550000	53,800000
0,501073	0,172403	230,144	-0,075688	22,550000	53,800000
0,492086	0,109921	230,594	-0,075715	22,550000	53,800000