Folder: Nanoindentation_Analysis/Nanoindentation Datenauswertung/data/PDMS/13.09

File: APM-PDMS-150ms,3um,7nms,9cycles,1,5um offset,5x1-2
Quasi static measurement routine
Tip parameters (shape,radius, material...)
13.09.2022

Piezo position[nm]	MEMS displ.[nm]	Time[ms]	Cap [pf]	Temp [°C]	Rh [%]
eoh

X-Pos [um]	Y-Pos [um]
0,000278	10,000814

POC
2,102017
0,657186	-0,024298	9,320	-0,075794	22,310000	52,035000
0,713144	-0,055539	17,733	-0,075808	22,300000	52,020000
0,769146	0,077523	26,145	-0,075751	22,290000	52,015000
0,825150	0,046283	34,560	-0,075765	22,310000	52,035000
0,881092	-0,109921	42,970	-0,075831	22,290000	52,055000
0,937098	-0,101822	51,385	-0,075827	22,310000	52,020000
0,993074	-0,032398	59,800	-0,075798	22,300000	52,045000
1,049050	-0,086780	68,213	-0,075821	22,290000	52,030000
1,105137	-0,392245	76,631	-0,075950	22,300000	52,060000
1,161141	-0,165460	85,044	-0,075854	22,300000	52,045000
1,217099	-0,384145	93,456	-0,075946	22,300000	52,045000
1,273154	-0,329763	101,872	-0,075923	22,300000	52,035000
1,329088	0,000000	110,286	-0,075784	22,300000	52,060000
1,385070	-0,627129	118,706	-0,076049	22,290000	52,040000
1,441104	-0,659527	127,120	-0,076063	22,290000	52,040000
1,497110	-0,533407	135,538	-0,076009	22,290000	52,030000
1,553089	-0,674569	143,956	-0,076069	22,290000	52,040000
1,609081	-0,587789	152,372	-0,076032	22,300000	52,035000
1,665094	-0,823830	160,787	-0,076132	22,290000	52,040000
1,721104	-0,627129	169,196	-0,076049	22,290000	52,040000
1,777056	-1,081855	177,610	-0,076241	22,290000	52,030000
1,833085	-176,966084	186,024	-0,150464	22,290000	52,030000
1,889120	-144,093880	194,433	-0,136592	22,300000	52,075000
1,945124	-109,254665	202,848	-0,121890	22,300000	52,060000
2,001053	-72,611587	211,263	-0,106426	22,300000	52,060000
2,057107	-36,564398	219,675	-0,091214	22,300000	52,075000
2,113029	0,328606	228,090	-0,075646	22,300000	52,085000
2,169118	37,104747	236,502	-0,060126	22,290000	52,030000
2,225069	73,393763	244,915	-0,044812	22,290000	52,015000
2,268992	101,901520	253,329	-0,032782	22,290000	52,095000
2,268022	98,954476	261,743	-0,034025	22,290000	52,055000
2,241017	78,041691	270,042	-0,042851	22,290000	52,055000
2,297011	117,725535	278,455	-0,026104	22,290000	52,040000
2,353052	156,508025	286,870	-0,009738	22,300000	52,075000
2,409087	194,248001	295,282	0,006188	22,300000	52,060000
2,435958	211,640995	303,694	0,013528	22,300000	52,045000
2,418038	195,988226	312,106	0,006923	22,300000	52,075000
2,362103	153,999509	320,520	-0,010796	22,290000	52,030000
2,397060	180,539100	328,826	0,000403	22,300000	52,035000
2,453054	221,383479	337,244	0,017640	22,290000	52,080000
2,509002	261,184186	345,657	0,034436	22,300000	52,060000
2,565080	298,132729	354,075	0,050028	22,300000	52,085000
2,603071	323,715427	362,491	0,060824	22,300000	52,075000
2,595980	316,763783	370,899	0,057890	22,290000	52,070000
2,540081	273,152862	379,319	0,039486	22,300000	52,045000
2,484078	232,199719	387,734	0,022204	22,310000	52,060000
2,527073	264,459836	396,032	0,035818	22,290000	52,095000
2,583039	306,801457	404,447	0,053686	22,300000	52,085000
2,639013	347,754600	412,860	0,070968	22,300000	52,060000
2,695013	388,269217	421,280	0,088065	22,300000	52,045000
2,751118	427,670736	429,689	0,104693	22,300000	52,075000
2,770041	439,819914	438,103	0,109820	22,300000	52,100000
2,744056	419,487976	446,518	0,101240	22,290000	52,040000
2,687998	376,464844	454,933	0,083084	22,290000	52,070000
2,632044	334,140579	463,348	0,065223	22,300000	52,060000
2,629032	331,765125	471,644	0,064221	22,300000	52,045000
2,685021	374,246751	480,059	0,082148	22,290000	52,040000
2,741044	416,227368	488,476	0,099864	22,290000	52,080000
2,797021	458,262367	496,893	0,117603	22,290000	52,040000
2,852990	498,683261	505,305	0,134660	22,300000	52,085000
2,908996	539,620205	513,722	0,151936	22,290000	52,040000
2,937039	558,502342	522,140	0,159904	22,290000	52,055000
2,920024	543,594722	530,564	0,153613	22,310000	52,085000
2,864011	500,791432	538,984	0,135550	22,300000	52,085000
2,808041	458,387330	547,402	0,117655	22,290000	52,070000
2,751979	416,219268	555,817	0,099860	22,300000	52,035000
2,759028	422,152695	564,146	0,102364	22,290000	52,070000
2,815049	465,778658	572,570	0,120774	22,290000	52,110000
2,870962	507,163387	580,990	0,138239	22,300000	52,115000
2,926989	548,556215	589,406	0,155707	22,300000	52,085000
2,983043	589,721101	597,823	0,173078	22,310000	52,085000
3,038973	631,872964	606,246	0,190866	22,290000	52,055000
3,094964	672,348239	614,664	0,207947	22,310000	52,075000
3,104006	678,031741	623,084	0,210345	22,300000	52,075000
3,067965	650,034249	631,503	0,198530	22,300000	52,100000
3,012013	606,313407	639,922	0,180080	22,300000	52,075000
2,956008	563,110930	648,345	0,161849	22,300000	52,060000
2,899962	521,115271	656,765	0,144126	22,300000	52,075000
2,861009	491,738559	665,072	0,131729	22,290000	52,110000
2,917059	536,101572	673,492	0,150451	22,290000	52,040000
2,973004	578,653779	681,907	0,168408	22,290000	52,070000
3,029074	620,798699	690,320	0,186193	22,300000	52,085000
3,085026	663,162304	698,736	0,204070	22,300000	52,085000
3,140974	704,170986	707,149	0,221376	22,300000	52,075000
3,196980	746,339048	715,560	0,239171	22,290000	52,070000
3,253039	786,963585	723,974	0,256314	22,290000	52,095000
3,270959	799,378888	732,397	0,261554	22,290000	52,095000
3,243988	777,597147	740,816	0,252362	22,290000	52,070000
3,188038	734,214168	749,232	0,234054	22,300000	52,085000
3,132062	691,199135	757,641	0,215902	22,300000	52,115000
3,076012	647,980459	766,057	0,197664	22,300000	52,100000
3,020006	606,462668	774,472	0,180143	22,300000	52,100000
2,993033	586,680335	782,775	0,171795	22,300000	52,060000
3,049089	629,890912	791,190	0,190030	22,290000	52,070000
3,104968	672,802966	799,604	0,208139	22,300000	52,125000
3,161009	714,862263	808,016	0,225888	22,310000	52,085000
3,217023	757,562574	816,428	0,243907	22,300000	52,075000
3,273003	798,853580	824,845	0,261332	22,290000	52,080000
3,328983	840,622454	833,258	0,278958	22,290000	52,080000
3,384946	881,802383	841,675	0,296336	22,290000	52,080000
3,437995	921,376305	850,097	0,313037	22,290000	52,110000
3,437942	919,840880	858,517	0,312389	22,300000	52,085000
3,390001	881,426337	866,934	0,296178	22,290000	52,095000
3,333985	838,741067	875,355	0,278165	22,290000	52,110000
3,277986	795,044524	883,765	0,259725	22,290000	52,095000
3,222009	752,970185	892,177	0,241969	22,290000	52,080000
3,166011	709,994492	900,593	0,223833	22,300000	52,115000
3,109998	668,233718	909,009	0,206210	22,290000	52,070000
3,153006	702,524483	917,308	0,220681	22,290000	52,070000
3,209016	746,355247	925,724	0,239178	22,300000	52,085000
3,265036	788,797532	934,133	0,257088	22,290000	52,095000
3,320938	832,165469	942,544	0,275390	22,290000	52,110000
3,376953	873,957485	950,966	0,293026	22,290000	52,110000
3,432920	915,600239	959,381	0,310599	22,300000	52,100000
3,488929	957,172412	967,792	0,328143	22,290000	52,110000
3,544890	998,965584	976,206	0,345779	22,300000	52,125000
3,600860	1040,153612	984,620	0,363161	22,300000	52,085000
3,604859	1042,309223	993,034	0,364070	22,300000	52,100000
3,563929	1010,172912	1001,448	0,350509	22,310000	52,100000
3,507858	966,343306	1009,856	0,332013	22,290000	52,080000
3,451959	923,140829	1018,271	0,313781	22,310000	52,085000
3,395933	880,619863	1026,682	0,295837	22,290000	52,095000
3,339986	837,079523	1035,090	0,277463	22,300000	52,125000
3,283964	795,820914	1043,507	0,260052	22,300000	52,075000
[...]
2,448230	214,007192	309,241	0,014656	22,300000	52,125000
2,431158	200,972860	312,095	0,009155	22,300000	52,125000
2,412116	186,426244	314,950	0,003017	22,300000	52,115000
2,393146	171,361263	317,805	-0,003341	22,300000	52,155000
2,374223	157,496159	320,657	-0,009192	22,300000	52,125000
2,372223	155,865855	323,395	-0,009880	22,300000	52,140000
2,391175	171,110180	326,250	-0,003447	22,300000	52,140000
2,410197	185,288850	329,102	0,002537	22,300000	52,115000
2,429189	198,206318	331,961	0,007988	22,290000	52,135000
2,448164	212,338705	334,820	0,013952	22,290000	52,150000
2,467164	226,438694	337,679	0,019902	22,290000	52,150000
2,486160	238,211826	340,536	0,024870	22,290000	52,150000
2,505158	251,387320	343,391	0,030430	22,300000	52,125000
2,524177	265,017541	346,251	0,036182	22,300000	52,115000
2,543149	278,905787	349,108	0,042043	22,300000	52,115000
2,562123	292,136821	351,961	0,047626	22,290000	52,135000
2,581146	304,913128	354,815	0,053018	22,290000	52,160000
2,600142	318,942536	357,674	0,058938	22,300000	52,115000
2,615130	329,123547	360,530	0,063235	22,300000	52,115000
2,615180	328,089131	363,387	0,062798	22,310000	52,140000
2,615225	327,493243	366,241	0,062547	22,300000	52,155000
2,615153	327,297699	369,098	0,062464	22,300000	52,155000
2,602171	316,904945	371,951	0,058079	22,300000	52,115000
2,583208	302,020466	374,806	0,051797	22,300000	52,165000
2,564146	287,943619	377,666	0,045857	22,310000	52,165000
2,545178	273,098480	380,522	0,039592	22,300000	52,155000
2,526223	258,708068	383,375	0,033520	22,300000	52,140000
2,507193	245,202810	386,231	0,027820	22,300000	52,140000
2,491202	231,933594	388,969	0,022221	22,300000	52,140000
2,510168	248,032990	391,822	0,029015	22,300000	52,155000
2,529238	262,172319	394,679	0,034981	22,290000	52,135000
2,548176	276,014283	397,535	0,040823	22,300000	52,115000
2,567161	290,490318	400,388	0,046932	22,290000	52,160000
2,586174	304,913128	403,242	0,053018	22,290000	52,135000
2,605114	318,409129	406,098	0,058713	22,290000	52,135000
2,624200	332,761358	408,950	0,064770	22,310000	52,140000
2,643154	346,642661	411,807	0,070628	22,300000	52,140000
2,662181	360,655870	414,657	0,076542	22,300000	52,125000
2,681145	373,612680	417,510	0,082009	22,290000	52,120000
2,700172	387,203560	420,362	0,087745	22,290000	52,135000
2,719186	400,606996	423,218	0,093401	22,300000	52,125000
2,738246	414,142337	426,071	0,099113	22,300000	52,125000
2,757161	427,695035	428,923	0,104832	22,300000	52,115000
2,776175	441,074172	431,780	0,110478	22,300000	52,140000
2,782148	445,580939	434,637	0,112380	22,300000	52,125000
2,782250	444,891328	437,491	0,112089	22,300000	52,180000
2,782191	444,334780	440,344	0,111854	22,300000	52,180000
2,779111	441,881804	443,202	0,110819	22,290000	52,135000
2,760124	427,169727	446,062	0,104610	22,290000	52,120000
2,741215	411,814324	448,917	0,098130	22,300000	52,155000
2,722134	397,001583	451,772	0,091879	22,300000	52,140000
2,703174	382,453810	454,629	0,085740	22,300000	52,140000
2,684154	368,431344	457,482	0,079823	22,300000	52,180000
2,665162	354,025890	460,337	0,073744	22,300000	52,180000
2,646178	340,817998	463,192	0,068170	22,290000	52,135000
2,627161	325,964760	466,049	0,061902	22,290000	52,175000
2,621199	321,356172	468,801	0,059957	22,290000	52,150000
2,640184	336,256850	471,653	0,066245	22,290000	52,135000
2,659190	351,658536	474,507	0,072745	22,300000	52,125000
2,678154	365,829106	477,362	0,078725	22,300000	52,155000
2,697153	379,616688	480,214	0,084543	22,290000	52,190000
2,716116	394,892254	483,072	0,090989	22,290000	52,190000
2,735170	408,875380	485,927	0,096890	22,300000	52,140000
2,741170	413,209743	486,827	0,098719	22,300000	52,140000

File: APM-PDMS-150ms,3um,20nms,9cycles,1,5um offset,5x1
Quasi static measurement routine
Tip parameters (shape,radius, material...)
13.09.2022

Piezo position[nm]	MEMS displ.[nm]	Time[ms]	Cap [pf]	Temp [°C]	Rh [%]
eoh

X-Pos [um]	Y-Pos [um]
0,000108	0,001048

POC
2,148031
0,708095	0,509108	3,248	-0,075900	22,290000	51,530000
0,771084	0,407287	6,407	-0,075943	22,290000	51,570000
0,834118	0,556548	9,567	-0,075880	22,290000	51,555000
0,897109	0,093722	12,724	-0,076076	22,290000	51,555000
0,960136	0,321664	15,879	-0,075979	22,300000	51,550000
1,023102	0,361004	19,034	-0,075963	22,290000	51,545000
1,086103	0,219842	22,190	-0,076022	22,290000	51,530000
1,149123	0,227942	25,344	-0,076019	22,290000	51,585000
1,212091	0,470925	28,500	-0,075917	22,290000	51,555000
1,275129	0,124963	31,654	-0,076063	22,300000	51,550000
1,338029	0,149261	34,813	-0,076052	22,290000	51,595000
1,401066	0,407287	37,968	-0,075943	22,290000	51,555000
1,464061	0,282324	41,125	-0,075996	22,290000	51,585000
1,527128	0,086780	44,282	-0,076079	22,290000	51,555000
1,590067	0,078680	47,439	-0,076082	22,290000	51,545000
1,653053	0,000000	50,596	-0,076115	22,280000	51,585000
1,716037	-0,054382	53,753	-0,076138	22,290000	51,555000
1,779080	0,093722	56,910	-0,076076	22,290000	51,545000
1,842050	-0,384145	60,067	-0,076277	22,290000	51,570000
1,905006	-152,346064	63,223	-0,140405	22,290000	51,570000
1,968017	-119,513200	66,377	-0,126550	22,290000	51,555000
2,031019	-77,791765	69,535	-0,108943	22,290000	51,545000
2,094023	-39,102997	72,691	-0,092617	22,290000	51,570000
2,157031	3,135645	75,845	-0,074792	22,290000	51,555000
2,220027	44,605996	79,003	-0,057292	22,290000	51,595000
2,283051	87,126962	82,159	-0,039348	22,290000	51,570000
2,316031	109,136645	85,315	-0,030060	22,290000	51,570000
2,315979	107,051614	88,469	-0,030939	22,290000	51,545000
2,316033	105,444452	91,625	-0,031618	22,290000	51,545000
2,297981	90,520633	94,783	-0,037916	22,290000	51,555000
2,310080	99,942610	97,842	-0,033939	22,290000	51,545000
2,373030	143,223767	100,997	-0,015675	22,290000	51,585000
2,436012	187,751083	104,153	0,003116	22,290000	51,530000
2,484051	222,519716	107,304	0,017788	22,290000	51,530000
2,484043	219,620113	110,463	0,016564	22,290000	51,545000
2,484017	218,193452	113,615	0,015962	22,290000	51,555000
2,481032	214,188851	116,769	0,014272	22,290000	51,545000
2,418089	166,102405	119,924	-0,006020	22,290000	51,595000
2,442020	183,298699	122,960	0,001237	22,290000	51,570000
2,504983	230,193369	126,114	0,021026	22,290000	51,555000
2,568025	276,861254	129,267	0,040720	22,290000	51,570000
2,630991	320,024391	132,424	0,058935	22,290000	51,570000
2,652084	334,979451	135,578	0,065246	22,290000	51,595000
2,651959	332,745159	138,734	0,064303	22,300000	51,560000
2,651984	331,633220	141,894	0,063834	22,290000	51,570000
2,622019	309,710317	145,052	0,054583	22,290000	51,570000
2,559026	261,835614	148,207	0,034379	22,290000	51,585000
2,553050	254,178160	151,247	0,031148	22,290000	51,570000
2,616000	302,146586	154,401	0,051391	22,290000	51,545000
2,679092	349,338622	157,556	0,071306	22,290000	51,585000
2,741990	397,385728	160,711	0,091582	22,290000	51,570000
2,804972	439,859255	163,863	0,109505	22,280000	51,545000
2,820019	450,777316	167,019	0,114113	22,300000	51,535000
2,819991	449,123871	170,174	0,113415	22,290000	51,585000
2,819963	448,058214	173,329	0,112965	22,290000	51,545000
2,783957	422,083272	176,485	0,102004	22,290000	51,530000
2,721016	373,197293	179,640	0,081374	22,290000	51,570000
2,657981	324,107672	182,794	0,060658	22,300000	51,575000
2,706051	362,366012	185,833	0,076803	22,300000	51,560000
2,768999	410,349480	188,989	0,097052	22,290000	51,545000
2,831935	458,012441	192,144	0,117166	22,290000	51,570000
2,894924	504,554206	195,296	0,136807	22,290000	51,570000
2,957990	548,039007	198,454	0,155157	22,290000	51,585000
2,987866	570,597138	201,612	0,164677	22,280000	51,570000
2,987964	568,590788	204,764	0,163830	22,290000	51,545000
2,988026	567,963659	207,921	0,163565	22,290000	51,570000
2,966939	552,671894	211,075	0,157112	22,290000	51,555000
2,903939	501,098054	214,233	0,135348	22,290000	51,570000
2,841031	453,763700	217,392	0,115373	22,290000	51,555000
2,778000	407,950885	220,547	0,096040	22,290000	51,555000
2,837993	454,139746	223,586	0,115532	22,290000	51,555000
2,900968	499,883136	226,746	0,134835	22,280000	51,530000
2,963969	549,982875	229,901	0,155978	22,290000	51,585000
3,026979	594,495150	233,057	0,174762	22,290000	51,585000
3,089983	643,756017	236,215	0,195550	22,290000	51,595000
3,152970	689,796773	239,369	0,214979	22,290000	51,545000
3,155922	690,023558	242,524	0,215075	22,290000	51,555000
3,155928	688,213909	245,683	0,214311	22,290000	51,610000
3,155943	687,476859	248,841	0,214000	22,290000	51,570000
3,107963	651,163544	251,998	0,198676	22,300000	51,575000
3,044929	601,039507	255,154	0,177523	22,290000	51,585000
2,982020	554,136737	258,310	0,157730	22,280000	51,595000
2,919000	506,161369	261,466	0,137485	22,280000	51,555000
2,948990	530,325505	264,503	0,147682	22,290000	51,555000
3,011942	576,702968	267,659	0,167253	22,290000	51,555000
3,074994	627,328014	270,815	0,188617	22,290000	51,570000
3,137962	672,262617	273,969	0,207580	22,290000	51,585000
3,201004	719,330846	277,125	0,227442	22,290000	51,585000
3,263955	768,136987	280,281	0,248039	22,290000	51,595000
3,323893	812,711743	283,436	0,266849	22,290000	51,555000
3,323949	810,431169	286,593	0,265887	22,290000	51,570000
3,323888	809,552957	289,745	0,265516	22,290000	51,555000
3,323968	808,518541	292,901	0,265080	22,280000	51,555000
3,269899	767,706559	296,055	0,247857	22,290000	51,570000
3,206959	718,209651	299,211	0,226969	22,290000	51,570000
3,143982	670,405528	302,365	0,206796	22,290000	51,585000
3,080949	623,652020	305,520	0,187066	22,290000	51,555000
3,039026	589,415636	308,563	0,172618	22,280000	51,570000
3,101978	639,452894	311,721	0,193734	22,290000	51,595000
3,164971	687,751083	314,879	0,214116	22,290000	51,555000
3,227967	736,487800	318,034	0,234683	22,300000	51,575000
3,290900	782,582938	321,189	0,254135	22,300000	51,535000
3,353910	832,016208	324,345	0,274996	22,290000	51,570000
3,416873	876,763366	327,504	0,293879	22,300000	51,590000
3,479836	922,976525	330,660	0,313381	22,290000	51,570000
3,491864	932,351063	333,815	0,317337	22,290000	51,545000
3,491867	931,229867	336,972	0,316864	22,290000	51,585000
3,491820	930,407194	340,127	0,316517	22,290000	51,585000
3,452887	899,651261	343,281	0,303538	22,290000	51,555000
3,389864	850,098813	346,436	0,282626	22,290000	51,555000
3,326935	800,734967	349,589	0,261795	22,290000	51,585000
3,263895	754,922153	352,746	0,242462	22,290000	51,585000
3,200937	705,308381	355,905	0,221525	22,280000	51,570000
3,170959	682,146262	358,974	0,211750	22,280000	51,570000
3,233924	732,944868	362,131	0,233187	22,290000	51,610000
3,296994	781,461743	365,283	0,253662	22,290000	51,585000
3,359941	829,164044	368,438	0,273792	22,300000	51,550000
3,422892	876,661545	371,593	0,293836	22,290000	51,555000
3,485912	926,652520	374,746	0,314932	22,290000	51,555000
3,548936	974,111837	377,909	0,334960	22,290000	51,585000
3,611833	1018,905278	381,065	0,353863	22,300000	51,575000
3,659873	1055,955643	384,219	0,369498	22,300000	51,575000
3,659863	1054,199219	387,372	0,368757	22,290000	51,570000
3,659875	1053,243483	390,527	0,368354	22,290000	51,570000
3,656818	1049,677410	393,683	0,366849	22,280000	51,515000
[...]
3,343067	811,002758	349,642	0,266508	22,290000	51,685000
3,280077	762,728867	352,797	0,246137	22,290000	51,700000
3,217068	715,270707	355,951	0,226109	22,310000	51,705000
3,187009	691,756841	358,986	0,216187	22,290000	51,700000
3,250064	741,033907	362,144	0,236981	22,300000	51,705000
3,313070	791,330347	365,298	0,258207	22,290000	51,700000
3,376089	836,609755	368,452	0,277314	22,290000	51,700000
3,439050	884,586280	371,610	0,297561	22,290000	51,715000
3,502035	931,935676	374,770	0,317542	22,290000	51,685000
3,565079	979,574339	377,926	0,337646	22,290000	51,715000
3,628025	1028,358496	381,084	0,358232	22,290000	51,715000
3,675988	1063,338872	384,239	0,372994	22,290000	51,685000
3,676054	1061,795348	387,399	0,372343	22,290000	51,685000
3,676063	1060,885895	390,553	0,371959	22,290000	51,700000
3,673037	1057,640329	393,709	0,370589	22,290000	51,700000
3,609982	1009,906787	396,861	0,350446	22,280000	51,685000
3,547053	958,326005	400,016	0,328679	22,300000	51,690000
3,484043	912,473850	403,171	0,309329	22,290000	51,675000
3,421064	864,356163	406,327	0,289023	22,300000	51,705000
3,358075	815,133479	409,480	0,268251	22,300000	51,705000
3,295085	766,828347	412,636	0,247867	22,290000	51,715000
3,232003	721,030574	415,793	0,228540	22,290000	51,715000
3,169134	672,866604	418,948	0,208215	22,300000	51,730000
3,106064	628,347388	422,102	0,189428	22,290000	51,740000
3,043096	581,460817	425,256	0,169642	22,300000	51,705000
2,980108	534,777890	428,412	0,149941	22,290000	51,715000
2,917144	488,055622	431,567	0,130225	22,290000	51,725000
2,854109	442,477692	434,724	0,110991	22,300000	51,690000
2,791155	395,174578	437,880	0,091029	22,290000	51,740000
2,728205	349,745909	441,039	0,071858	22,290000	51,685000
2,665121	303,110421	444,192	0,052178	22,290000	51,685000
2,602139	258,080939	447,343	0,033175	22,290000	51,700000
2,539193	215,231367	450,501	0,015093	22,300000	51,720000
2,476139	168,351738	453,660	-0,004690	22,300000	51,720000
2,413156	125,400344	456,816	-0,022816	22,290000	51,715000
2,350194	80,175318	459,974	-0,041901	22,290000	51,685000
2,287154	35,027816	463,129	-0,060953	22,290000	51,685000
2,224126	-6,583697	466,286	-0,078513	22,290000	51,700000
2,161159	-50,828690	469,440	-0,097185	22,290000	51,700000
2,098142	-91,492567	472,598	-0,114345	22,300000	51,720000
2,035205	-134,412720	475,751	-0,132457	22,290000	51,725000
1,972181	-179,552123	478,909	-0,151506	22,290000	51,715000
1,909174	-219,854997	482,066	-0,168514	22,290000	51,685000
1,846241	-261,427170	485,219	-0,186057	22,280000	51,685000
1,783206	-302,670736	488,378	-0,203462	22,290000	51,685000
1,720171	-341,179003	491,531	-0,219712	22,290000	51,685000
1,657186	-380,643004	494,686	-0,236366	22,290000	51,715000
1,594243	-419,159369	497,844	-0,252620	22,290000	51,685000
1,531241	-459,007516	501,001	-0,269436	22,300000	51,745000
1,468242	-496,519550	504,157	-0,285266	22,300000	51,690000
1,405225	-530,654112	507,315	-0,299671	22,290000	51,700000
1,342232	-568,903195	510,468	-0,315812	22,290000	51,715000
1,279218	-600,561639	513,620	-0,329172	22,290000	51,715000
1,216205	-632,132146	516,779	-0,342495	22,290000	51,700000
1,153238	-660,341380	519,934	-0,354399	22,290000	51,715000
1,090245	-686,927253	523,092	-0,365618	22,290000	51,685000
1,027205	-705,174161	526,248	-0,373318	22,290000	51,725000
0,964225	-730,726775	529,403	-0,384102	22,290000	51,725000
0,901260	-727,246325	532,558	-0,382633	22,290000	51,715000
0,838262	0,023141	535,716	-0,075725	22,290000	51,715000
0,775187	0,203643	538,872	-0,075649	22,290000	51,700000
0,712233	0,282324	542,028	-0,075616	22,290000	51,715000
0,664201	0,259182	544,432	-0,075625	22,290000	51,715000