Folder: Nanoindentation_Analysis/Nanoindentation Datenauswertung/data/PDMS/13.09 (part 2)

File: APM-PDMS-150ms,3um,20nms,9cycles,1,5um offset,5x1-3
Quasi static measurement routine
Tip parameters (shape,radius, material...)
13.09.2022

Piezo position[nm]	MEMS displ.[nm]	Time[ms]	Cap [pf]	Temp [°C]	Rh [%]
eoh

X-Pos [um]	Y-Pos [um]
0,000197	0,000989

POC
2,166052
0,726143	0,126120	4,055	-0,075771	22,290000	52,265000
0,789175	0,133062	7,210	-0,075768	22,290000	52,280000
0,852169	0,149261	10,365	-0,075761	22,300000	52,270000
0,915150	0,211743	13,521	-0,075735	22,290000	52,265000
0,978147	0,165460	16,671	-0,075754	22,300000	52,285000
1,041180	0,305465	19,826	-0,075695	22,300000	52,285000
1,104135	0,196701	22,980	-0,075741	22,290000	52,290000
1,167170	0,047440	26,137	-0,075804	22,300000	52,295000
1,230158	0,094879	29,297	-0,075784	22,300000	52,295000
1,293172	0,078680	32,450	-0,075791	22,300000	52,255000
1,356159	0,219842	35,605	-0,075731	22,290000	52,250000
1,419159	0,086780	38,760	-0,075788	22,300000	52,270000
1,482177	0,126120	41,915	-0,075771	22,300000	52,325000
1,545187	-0,038183	45,068	-0,075840	22,300000	52,255000
1,608168	-0,062481	48,219	-0,075851	22,300000	52,285000
1,671101	-0,210586	51,375	-0,075913	22,300000	52,285000
1,734097	-8,230200	54,530	-0,079297	22,300000	52,285000
1,797110	-207,988142	57,685	-0,163595	22,290000	52,330000
1,860154	-195,055632	60,838	-0,158138	22,290000	52,330000
1,923131	-156,422403	63,993	-0,141834	22,310000	52,295000
1,986151	-118,510025	67,149	-0,125835	22,300000	52,295000
2,049059	-78,575098	70,306	-0,108983	22,300000	52,310000
2,112084	-38,155361	73,459	-0,091926	22,310000	52,285000
2,175106	5,228775	76,618	-0,073618	22,300000	52,285000
2,238090	47,577338	79,777	-0,055747	22,290000	52,290000
2,301039	88,648502	82,933	-0,038415	22,300000	52,270000
2,334085	111,189277	86,088	-0,028902	22,300000	52,285000
2,334131	108,823080	89,243	-0,029901	22,300000	52,270000
2,334139	107,616262	92,396	-0,030410	22,300000	52,270000
2,316087	95,122279	95,554	-0,035683	22,300000	52,270000
2,328161	100,985125	98,600	-0,033208	22,290000	52,280000
2,391166	145,880387	101,755	-0,014263	22,290000	52,290000
2,454121	190,164720	104,909	0,004425	22,300000	52,285000
2,502125	224,307381	108,069	0,018833	22,300000	52,285000
2,502095	221,744483	111,223	0,017752	22,300000	52,285000
2,502091	220,020457	114,378	0,017024	22,300000	52,295000
2,499121	218,640079	117,531	0,016442	22,310000	52,270000
2,436107	168,344796	120,693	-0,004783	22,300000	52,270000
2,460103	187,007090	123,731	0,003093	22,300000	52,285000
2,523142	231,949793	126,886	0,022059	22,290000	52,280000
2,586104	277,025557	130,045	0,041081	22,310000	52,310000
2,649114	321,631554	133,200	0,059904	22,310000	52,310000
2,670055	336,382970	136,356	0,066129	22,300000	52,285000
2,670067	334,838289	139,511	0,065478	22,310000	52,295000
2,670115	333,654612	142,665	0,064978	22,300000	52,255000
2,640070	309,858422	145,821	0,054936	22,310000	52,295000
2,577117	262,572664	148,981	0,034981	22,300000	52,295000
2,571155	258,026557	152,021	0,033063	22,310000	52,270000
2,634081	304,873787	155,178	0,052833	22,310000	52,285000
2,697088	351,917719	158,335	0,072685	22,300000	52,295000
2,760107	397,267708	161,494	0,091823	22,300000	52,270000
2,823074	443,771290	164,650	0,111447	22,300000	52,285000
2,838104	452,126453	167,805	0,114973	22,300000	52,270000
2,838143	450,793515	170,965	0,114411	22,300000	52,270000
2,838019	450,245066	174,118	0,114179	22,300000	52,270000
2,802057	421,267541	177,273	0,101951	22,300000	52,295000
2,739118	375,157361	180,426	0,082492	22,300000	52,295000
2,676122	327,062815	183,580	0,062196	22,290000	52,290000
2,724149	364,129378	186,624	0,077838	22,290000	52,265000
2,787085	410,153936	189,779	0,097261	22,300000	52,295000
2,850117	458,411628	192,933	0,117625	22,300000	52,310000
2,913066	505,299356	196,088	0,137412	22,310000	52,295000
2,976002	548,869779	199,245	0,155799	22,310000	52,295000
3,006024	571,662794	202,397	0,165417	22,300000	52,270000
3,006011	570,088029	205,549	0,164753	22,300000	52,310000
3,006022	569,241058	208,709	0,164396	22,310000	52,285000
2,985035	554,121695	211,867	0,158015	22,300000	52,295000
2,922058	505,079513	215,022	0,137319	22,300000	52,295000
2,859081	455,638144	218,176	0,116455	22,300000	52,295000
2,796034	409,190101	221,339	0,096854	22,290000	52,305000
2,856109	453,646836	224,397	0,115615	22,300000	52,325000
2,919043	501,693943	227,549	0,135891	22,300000	52,325000
2,982079	550,069655	230,706	0,156305	22,300000	52,295000
3,045006	598,649011	233,864	0,176806	22,300000	52,295000
3,108006	642,447377	237,024	0,195289	22,300000	52,325000
3,171050	688,598054	240,177	0,214764	22,310000	52,285000
3,174021	690,965408	243,338	0,215763	22,310000	52,285000
3,174022	689,992317	246,491	0,215353	22,300000	52,295000
3,174035	688,841038	249,650	0,214867	22,300000	52,325000
3,126046	653,420977	252,810	0,199919	22,300000	52,295000
3,063088	604,331356	255,963	0,179204	22,300000	52,310000
3,000068	555,673319	259,121	0,158670	22,300000	52,310000
2,937123	507,062722	262,275	0,138156	22,290000	52,320000
2,967081	529,855737	265,318	0,147775	22,290000	52,320000
3,030081	579,187185	268,473	0,168593	22,300000	52,270000
3,093072	626,779565	271,633	0,188677	22,310000	52,325000
3,156031	673,995899	274,787	0,208602	22,300000	52,255000
3,219078	721,376537	277,942	0,228597	22,300000	52,270000
3,282059	770,080856	281,097	0,249150	22,300000	52,310000
3,342033	814,663711	284,252	0,267964	22,300000	52,295000
3,341999	811,833531	287,408	0,266770	22,300000	52,295000
3,342004	810,767874	290,562	0,266320	22,300000	52,310000
3,342001	809,835280	293,719	0,265926	22,300000	52,325000
3,288034	769,305622	296,878	0,248823	22,300000	52,295000
3,225084	719,173486	300,033	0,227667	22,300000	52,325000
3,162017	671,456143	303,192	0,207530	22,300000	52,325000
3,099102	624,333531	306,348	0,187645	22,300000	52,325000
3,057062	589,118271	309,397	0,172784	22,300000	52,310000
3,120122	639,766458	312,550	0,194157	22,290000	52,305000
3,183070	689,514449	315,705	0,215151	22,310000	52,310000
3,246051	737,968843	318,861	0,235599	22,300000	52,310000
3,308952	783,578014	322,015	0,254846	22,300000	52,285000
3,372031	830,621945	325,172	0,274698	22,300000	52,285000
3,435017	877,697118	328,327	0,294564	22,310000	52,285000
3,497983	927,123445	331,480	0,315422	22,300000	52,310000
3,510006	933,902686	334,637	0,318283	22,290000	52,345000
3,509966	932,507266	337,796	0,317694	22,300000	52,325000
3,509969	931,316647	340,955	0,317191	22,290000	52,320000
3,470997	899,948626	344,112	0,303954	22,300000	52,285000
3,408039	853,187019	347,268	0,284221	22,300000	52,285000
3,345058	802,773715	350,421	0,262946	22,310000	52,295000
3,281969	754,946451	353,576	0,242763	22,300000	52,325000
3,219073	708,176744	356,733	0,223026	22,300000	52,285000
3,189102	683,894587	359,816	0,212779	22,290000	52,280000
3,252031	736,197377	362,970	0,234851	22,300000	52,285000
3,315036	784,910952	366,127	0,255408	22,310000	52,310000
3,378001	830,512024	369,283	0,274652	22,310000	52,310000
3,440973	878,088205	372,439	0,294729	22,290000	52,305000
3,503966	928,031741	375,597	0,315805	22,300000	52,310000
3,566913	972,786998	378,753	0,334692	22,300000	52,285000
3,629937	1022,362587	381,909	0,355613	22,310000	52,310000
3,677978	1056,707735	385,063	0,370106	22,290000	52,280000
3,677977	1055,187352	388,219	0,369465	22,310000	52,270000
3,677983	1054,051114	391,377	0,368985	22,290000	52,280000
3,674963	1051,432677	394,534	0,367880	22,290000	52,280000
[...]
3,357239	807,898354	350,422	0,265371	22,300000	52,430000
3,294313	762,218602	353,577	0,246094	22,310000	52,440000
3,231327	712,478710	356,733	0,225104	22,310000	52,440000
3,201331	689,114105	359,785	0,215244	22,290000	52,410000
3,264296	738,720935	362,936	0,236178	22,300000	52,440000
3,327288	787,347730	366,091	0,256698	22,300000	52,430000
3,390245	838,082698	369,247	0,278108	22,310000	52,415000
3,453222	882,971018	372,399	0,297051	22,300000	52,415000
3,516181	931,189370	375,553	0,317399	22,300000	52,405000
3,579182	980,420153	378,707	0,338175	22,310000	52,440000
3,642175	1027,259284	381,862	0,357941	22,300000	52,440000
3,690212	1062,570581	385,021	0,372842	22,300000	52,440000
3,690203	1060,955319	388,178	0,372161	22,300000	52,415000
3,690214	1059,865364	391,331	0,371701	22,300000	52,430000
3,687232	1059,333114	394,493	0,371476	22,310000	52,405000
3,624233	1008,957994	397,647	0,350218	22,300000	52,430000
3,561207	959,869529	400,802	0,329502	22,300000	52,415000
3,498293	909,313907	403,954	0,308168	22,300000	52,440000
3,435264	862,372954	407,113	0,288359	22,310000	52,405000
3,372253	813,777399	410,265	0,267852	22,300000	52,415000
3,309276	766,294940	413,421	0,247814	22,290000	52,425000
3,246330	721,155537	416,573	0,228765	22,300000	52,415000
3,183282	674,362689	419,730	0,209019	22,310000	52,405000
3,120384	626,606006	422,885	0,188865	22,310000	52,405000
3,057325	580,911211	426,040	0,169582	22,300000	52,415000
2,994363	534,964177	429,194	0,150192	22,300000	52,405000
2,931347	486,023817	432,353	0,129540	22,300000	52,405000
2,868403	442,758858	435,512	0,111282	22,310000	52,415000
2,805361	394,453727	438,667	0,090897	22,310000	52,440000
2,742372	350,905287	441,819	0,072520	22,300000	52,415000
2,679380	305,414137	444,975	0,053322	22,310000	52,480000
2,616398	257,304549	448,128	0,033020	22,300000	52,390000
2,553336	214,893504	451,282	0,015123	22,300000	52,415000
2,490374	167,763950	454,438	-0,004766	22,300000	52,430000
2,427399	123,588381	457,594	-0,023408	22,310000	52,455000
2,364387	78,928003	460,751	-0,042255	22,310000	52,440000
2,301413	36,783083	463,904	-0,060040	22,300000	52,430000
2,238355	-7,149502	467,060	-0,078580	22,310000	52,440000
2,175386	-51,276474	470,214	-0,097201	22,300000	52,415000
2,112391	-90,654852	473,370	-0,113819	22,300000	52,440000
2,049381	-133,701126	476,526	-0,131984	22,310000	52,430000
1,986376	-175,821747	479,682	-0,149759	22,290000	52,450000
1,923431	-217,629961	482,840	-0,167402	22,300000	52,415000
1,860406	-259,210234	485,997	-0,184949	22,290000	52,435000
1,797442	-301,151511	489,153	-0,202648	22,290000	52,435000
1,734410	-342,920385	492,307	-0,220275	22,300000	52,405000
1,671400	-381,255091	495,461	-0,236452	22,310000	52,430000
1,608400	-421,942110	498,615	-0,253622	22,310000	52,430000
1,545474	-459,314138	501,770	-0,269393	22,290000	52,425000
1,482459	-494,043432	504,922	-0,284049	22,290000	52,425000
1,419488	-528,875703	508,079	-0,298748	22,290000	52,425000
1,356475	-564,906694	511,237	-0,313953	22,310000	52,455000
1,293430	-604,175152	514,392	-0,330524	22,310000	52,455000
1,230419	-629,750907	517,547	-0,341317	22,300000	52,415000
1,167459	-661,572497	520,703	-0,354746	22,300000	52,415000
1,104384	-684,913961	523,861	-0,364596	22,300000	52,440000
1,041500	-706,758183	527,014	-0,373814	22,300000	52,440000
0,978483	-712,010099	530,166	-0,376031	22,300000	52,430000
0,915398	-712,950792	533,320	-0,376428	22,300000	52,415000
0,852422	-0,196701	536,477	-0,075646	22,300000	52,440000
0,789453	0,312407	539,631	-0,075431	22,300000	52,415000
0,726448	0,312407	542,788	-0,075431	22,290000	52,425000
0,678498	0,108764	545,189	-0,075517	22,290000	52,425000

File: APM-PDMS-150ms,3um,20nms,9cycles,1,5um offset,5x1-4
Quasi static measurement routine
Tip parameters (shape,radius, material...)
13.09.2022

Piezo position[nm]	MEMS displ.[nm]	Time[ms]	Cap [pf]	Temp [°C]	Rh [%]
eoh

X-Pos [um]	Y-Pos [um]
0,000094	0,000889

POC
2,171980
0,732074	-0,015042	4,051	-0,075556	22,300000	52,455000
0,795079	0,094879	7,205	-0,075510	22,310000	52,440000
0,858054	-0,046283	10,366	-0,075569	22,300000	52,470000
0,920997	0,039340	13,526	-0,075533	22,300000	52,470000
0,984099	0,063639	16,684	-0,075523	22,290000	52,475000
1,047082	-0,140005	19,838	-0,075609	22,300000	52,495000
1,110089	0,188602	22,994	-0,075470	22,300000	52,455000
1,173031	-0,124963	26,150	-0,075603	22,310000	52,470000
1,236014	0,149261	29,307	-0,075487	22,300000	52,440000
1,299017	0,000000	32,469	-0,075550	22,300000	52,430000
1,362011	-0,030084	35,626	-0,075563	22,290000	52,465000
1,425056	0,251083	38,787	-0,075444	22,290000	52,450000
1,488036	0,126120	41,942	-0,075497	22,300000	52,470000
1,551052	-0,124963	45,100	-0,075603	22,300000	52,455000
1,614022	0,016199	48,255	-0,075543	22,310000	52,470000
1,677097	-0,124963	51,411	-0,075603	22,310000	52,455000
1,740028	-7,711835	54,569	-0,078804	22,300000	52,430000
1,803045	-14,436695	57,724	-0,081642	22,290000	52,465000
1,865981	-195,722101	60,880	-0,158145	22,310000	52,455000
1,929035	-156,923412	64,037	-0,141771	22,300000	52,440000
1,992012	-119,912387	67,192	-0,126153	22,300000	52,495000
2,054998	-79,468352	70,349	-0,109085	22,290000	52,465000
2,117993	-38,122964	73,504	-0,091638	22,310000	52,440000
2,181012	3,778973	76,661	-0,073955	22,290000	52,435000
2,243973	45,405528	79,822	-0,056389	22,300000	52,455000
2,306979	87,730950	82,979	-0,038527	22,300000	52,470000
2,340039	109,983616	86,139	-0,029137	22,300000	52,470000
2,340000	107,498241	89,298	-0,030186	22,290000	52,450000
2,340064	105,836697	92,458	-0,030887	22,290000	52,450000
2,321977	93,444535	95,615	-0,036116	22,300000	52,440000
2,333930	100,553540	98,651	-0,033116	22,300000	52,415000
2,397004	143,772216	101,811	-0,014878	22,320000	52,430000
2,459994	190,573164	104,966	0,004872	22,300000	52,440000
2,508056	222,434094	108,122	0,018317	22,300000	52,455000
2,508075	219,894337	111,278	0,017246	22,300000	52,480000
2,507984	218,217750	114,440	0,016538	22,300000	52,480000
2,505002	217,237717	117,601	0,016125	22,300000	52,455000
2,442023	168,673402	120,759	-0,004370	22,290000	52,425000
2,466021	184,475433	123,801	0,002299	22,310000	52,415000
2,529043	232,718084	126,960	0,022657	22,290000	52,475000
2,592060	277,974350	130,118	0,041755	22,300000	52,455000
2,654986	321,381628	133,273	0,060073	22,300000	52,470000
2,676039	334,987550	136,424	0,065815	22,300000	52,440000
2,676002	333,537748	139,576	0,065203	22,300000	52,440000
2,675971	332,111087	142,730	0,064601	22,300000	52,440000
2,645961	310,462409	145,886	0,055465	22,300000	52,440000
2,583012	260,032907	149,045	0,034184	22,300000	52,455000
2,576978	255,627962	152,086	0,032325	22,300000	52,440000
2,639988	305,149169	155,238	0,053223	22,300000	52,455000
2,703038	351,847138	158,397	0,072930	22,310000	52,495000
2,765969	398,162119	161,551	0,092475	22,310000	52,470000
2,828999	441,082272	164,709	0,110587	22,290000	52,410000
2,843989	451,844130	167,864	0,115128	22,300000	52,430000
2,843963	450,479950	171,016	0,114553	22,300000	52,480000
2,844017	449,226849	174,174	0,114024	22,310000	52,440000
2,807900	420,477266	177,330	0,101892	22,300000	52,470000
2,744962	373,518957	180,484	0,082075	22,310000	52,440000
2,681936	327,275715	183,640	0,062561	22,310000	52,455000
2,730017	361,159194	186,682	0,076859	22,300000	52,480000
2,792999	409,456226	189,839	0,097241	22,300000	52,480000
2,855975	456,468917	192,992	0,117080	22,300000	52,455000
2,918990	502,940101	196,149	0,136691	22,300000	52,470000
2,982053	549,363846	199,302	0,156282	22,300000	52,495000
3,011955	571,255508	202,456	0,165520	22,310000	52,480000
3,011922	569,711983	205,611	0,164869	22,300000	52,440000
3,011960	568,755091	208,769	0,164465	22,300000	52,440000
2,990987	554,098554	211,924	0,158280	22,310000	52,470000
2,927952	504,406102	215,076	0,137310	22,310000	52,470000
2,864975	456,303456	218,232	0,117010	22,300000	52,440000
2,801953	408,162628	221,390	0,096695	22,300000	52,470000
2,862003	454,909194	224,428	0,116422	22,290000	52,450000
2,924923	503,198126	227,583	0,136800	22,290000	52,475000
2,987966	551,307714	230,737	0,157102	22,300000	52,430000
3,050941	598,241725	233,890	0,176908	22,300000	52,430000
3,113916	642,361754	237,042	0,195527	22,310000	52,480000
3,176896	690,737467	240,199	0,215941	22,310000	52,480000
3,179902	691,294015	243,356	0,216176	22,300000	52,455000
3,179942	689,781731	246,512	0,215538	22,300000	52,455000
3,179998	688,942860	249,671	0,215184	22,300000	52,480000
3,131898	652,715168	252,828	0,199896	22,310000	52,455000
3,068919	603,014616	255,986	0,178922	22,310000	52,470000
3,005933	554,121695	259,140	0,158290	22,300000	52,495000
2,942987	509,194035	262,296	0,139330	22,300000	52,495000
2,972952	531,023215	265,334	0,148542	22,300000	52,455000
3,035960	578,435093	268,491	0,168550	22,300000	52,455000
3,098972	626,708984	271,646	0,188921	22,300000	52,495000
3,161884	674,912295	274,800	0,209263	22,310000	52,470000
3,224939	720,795690	277,954	0,228626	22,300000	52,455000
3,287919	767,965742	281,108	0,248532	22,300000	52,440000
3,347856	814,295764	284,261	0,268083	22,300000	52,440000
3,347880	811,716667	287,416	0,266995	22,300000	52,470000
3,347887	810,744733	290,566	0,266584	22,300000	52,455000
3,347917	809,828338	293,722	0,266198	22,300000	52,470000
3,293864	769,423643	296,877	0,249147	22,300000	52,470000
3,230902	717,990966	300,035	0,227442	22,300000	52,470000
3,167938	672,522956	303,189	0,208255	22,300000	52,480000
3,104970	624,851896	306,344	0,188138	22,310000	52,470000
3,062953	589,925902	309,383	0,173399	22,300000	52,470000
3,125951	639,587113	312,538	0,194356	22,310000	52,480000
3,188918	688,480034	315,699	0,214989	22,300000	52,470000
3,251926	736,753925	318,856	0,235360	22,300000	52,470000
3,314910	785,145836	322,011	0,255782	22,300000	52,470000
3,377909	833,091121	325,167	0,276015	22,300000	52,440000
3,440856	880,511099	328,321	0,296026	22,300000	52,440000
3,503870	927,146586	331,480	0,315706	22,310000	52,480000
3,515805	934,028806	334,637	0,318610	22,290000	52,490000
3,515853	932,930752	337,791	0,318147	22,300000	52,440000
3,515807	931,896336	340,944	0,317710	22,290000	52,475000
3,476831	901,555789	344,100	0,304907	22,310000	52,480000
3,413854	853,807205	347,257	0,284757	22,300000	52,495000
3,350874	802,875537	350,414	0,263264	22,300000	52,495000
3,287865	755,424319	353,571	0,243239	22,290000	52,450000
3,224911	709,846388	356,725	0,224005	22,300000	52,470000
3,194915	686,481783	359,769	0,214146	22,300000	52,455000
3,257914	735,586447	362,924	0,234868	22,300000	52,510000
3,320903	782,888403	366,078	0,254829	22,300000	52,480000
3,383889	830,966751	369,232	0,275118	22,300000	52,440000
3,446872	881,028306	372,391	0,296244	22,310000	52,480000
3,509873	926,026548	375,545	0,315233	22,310000	52,470000
3,572777	973,962576	378,701	0,335462	22,300000	52,470000
3,635884	1020,497399	381,855	0,355100	22,300000	52,470000
3,683813	1057,821988	385,013	0,370851	22,300000	52,455000
3,683809	1055,806381	388,172	0,370000	22,310000	52,495000
3,683779	1055,390995	391,329	0,369825	22,300000	52,480000
3,680803	1052,742474	394,488	0,368708	22,310000	52,480000
[...]
3,361602	808,180678	350,397	0,265628	22,290000	52,540000
3,298551	762,086697	353,553	0,246177	22,300000	52,560000
3,235605	712,847814	356,709	0,225398	22,300000	52,575000
3,205591	691,528899	359,744	0,216401	22,310000	52,560000
3,268596	741,433094	362,903	0,237461	22,300000	52,575000
3,331606	787,731876	366,063	0,256999	22,300000	52,535000
3,394625	838,647345	369,221	0,278485	22,310000	52,545000
3,457549	883,817989	372,372	0,297547	22,290000	52,570000
3,520526	931,331689	375,529	0,317598	22,310000	52,545000
3,583555	980,475692	378,683	0,338337	22,310000	52,560000
3,646525	1027,974350	381,837	0,358381	22,310000	52,560000
3,694537	1062,876046	384,992	0,373110	22,300000	52,545000
3,694476	1061,089538	388,144	0,372356	22,300000	52,545000
3,694507	1060,290007	391,303	0,372019	22,310000	52,575000
3,691507	1058,965168	394,460	0,371459	22,290000	52,555000
3,628477	1008,778649	397,613	0,350281	22,310000	52,575000
3,565478	958,199885	400,768	0,328937	22,300000	52,560000
3,502515	909,377546	403,924	0,308333	22,300000	52,535000
3,439572	863,995159	407,083	0,289182	22,310000	52,560000
3,376600	814,333947	410,237	0,268225	22,310000	52,560000
3,313562	766,710327	413,389	0,248128	22,310000	52,535000
3,250580	722,041849	416,546	0,229278	22,300000	52,545000
3,187577	674,237726	419,703	0,209104	22,310000	52,560000
3,124639	627,061889	422,857	0,189196	22,310000	52,535000
3,061566	579,210327	426,012	0,169003	22,300000	52,575000
2,998617	535,318239	429,172	0,150480	22,310000	52,575000
2,935616	489,246242	432,327	0,131038	22,300000	52,545000
2,872620	442,798199	435,482	0,111437	22,310000	52,585000
2,809702	395,417561	438,639	0,091442	22,290000	52,595000
2,746598	348,907037	441,793	0,071815	22,300000	52,545000
2,683587	305,054289	444,950	0,053309	22,310000	52,545000
2,620653	258,927910	448,105	0,033844	22,300000	52,575000
2,557637	214,579939	451,263	0,015129	22,290000	52,540000
2,494623	168,548439	454,422	-0,004296	22,310000	52,560000
2,431681	125,085623	457,577	-0,022638	22,300000	52,560000
2,368624	78,724359	460,731	-0,042202	22,310000	52,520000
2,305615	36,886062	463,884	-0,059858	22,300000	52,585000
2,242642	-6,066490	467,041	-0,077984	22,300000	52,535000
2,179716	-51,135312	470,194	-0,097003	22,310000	52,545000
2,116668	-93,428336	473,350	-0,114851	22,290000	52,570000
2,053697	-136,302207	476,503	-0,132943	22,300000	52,535000
1,990670	-178,102322	479,654	-0,150583	22,300000	52,585000
1,927618	-221,242317	482,811	-0,168788	22,300000	52,545000
1,864664	-260,299032	485,967	-0,185270	22,310000	52,600000
1,801650	-301,848064	489,119	-0,202804	22,300000	52,520000
1,738673	-339,031491	492,274	-0,218495	22,300000	52,520000
1,675656	-383,402603	495,430	-0,237220	22,300000	52,575000
1,612670	-418,900187	498,583	-0,252200	22,300000	52,560000
1,549688	-457,730117	501,738	-0,268586	22,300000	52,575000
1,486710	-497,374620	504,893	-0,285316	22,300000	52,575000
1,423677	-529,212409	508,052	-0,298751	22,300000	52,560000
1,360721	-564,192785	511,209	-0,313513	22,310000	52,585000
1,297744	-600,231876	514,361	-0,328722	22,300000	52,545000
1,234711	-628,198126	517,518	-0,340523	22,300000	52,585000
1,171705	-652,926911	520,675	-0,350959	22,300000	52,585000
1,108707	-679,888829	523,832	-0,362337	22,300000	52,585000
1,045735	-704,046023	526,988	-0,372531	22,300000	52,575000
0,982720	-720,089881	530,146	-0,379302	22,300000	52,575000
0,919739	-717,511941	533,303	-0,378214	22,310000	52,575000
0,856742	-0,259182	536,461	-0,075533	22,310000	52,560000
0,793748	-0,431585	539,614	-0,075606	22,310000	52,585000
0,730737	-0,093722	542,772	-0,075463	22,300000	52,545000
0,682707	0,118021	545,179	-0,075374	22,300000	52,545000