Folder: Nanoindentation_Analysis/Nanoindentation Datenauswertung/data/PDMS/13.09 (part 3)

File: APM-PDMS-150ms,3um,20nms,9cycles,1,5um offset,9x1-5
Quasi static measurement routine
Tip parameters (shape,radius, material...)
13.09.2022

Piezo position[nm]	MEMS displ.[nm]	Time[ms]	Cap [pf]	Temp [°C]	Rh [%]
eoh

X-Pos [um]	Y-Pos [um]
0,000153	0,001243

POC
2,179982
0,758126	-0,062481	4,967	-0,075470	22,300000	52,575000
0,839135	-0,101822	9,025	-0,075487	22,300000	52,600000
0,920091	-0,031241	13,083	-0,075457	22,310000	52,575000
1,001117	-0,015042	17,145	-0,075450	22,300000	52,575000
1,082124	-0,008099	21,205	-0,075447	22,300000	52,575000
1,163063	0,094879	25,262	-0,075404	22,300000	52,600000
1,244089	-0,203643	29,321	-0,075530	22,300000	52,600000
1,325065	-0,180502	33,379	-0,075520	22,310000	52,575000
1,406109	-0,054382	37,439	-0,075467	22,300000	52,575000
1,487055	-0,211743	41,498	-0,075533	22,300000	52,545000
1,568074	-0,031241	45,550	-0,075457	22,320000	52,560000
1,649086	-0,195544	49,607	-0,075526	22,300000	52,585000
1,730099	0,016199	53,663	-0,075437	22,300000	52,575000
1,811047	-222,621538	57,717	-0,169390	22,310000	52,560000
1,892036	-185,116447	61,775	-0,153563	22,310000	52,575000
1,973018	-133,739309	65,832	-0,131882	22,300000	52,585000
2,054003	-81,812565	69,891	-0,109969	22,310000	52,575000
2,135028	-30,849656	73,948	-0,088462	22,310000	52,560000
2,216010	25,097888	78,002	-0,064853	22,310000	52,600000
2,297041	77,070914	82,057	-0,042920	22,310000	52,560000
2,348004	111,346638	86,112	-0,028456	22,300000	52,585000
2,348045	108,422736	90,169	-0,029689	22,300000	52,560000
2,347975	106,675568	94,223	-0,030427	22,300000	52,575000
2,275996	52,819998	98,286	-0,053154	22,310000	52,625000
2,329944	93,498917	102,233	-0,035987	22,300000	52,585000
2,411054	151,986217	106,289	-0,011306	22,300000	52,575000
2,491990	206,264116	110,348	0,011600	22,310000	52,585000
2,516016	221,885645	114,402	0,018192	22,310000	52,600000
2,515980	219,667552	118,458	0,017256	22,310000	52,585000
2,498001	204,492650	122,522	0,010852	22,300000	52,615000
2,417045	145,151437	126,577	-0,014190	22,310000	52,560000
2,357035	100,476016	130,510	-0,033043	22,300000	52,575000
2,437989	162,285249	134,565	-0,006959	22,310000	52,600000
2,519018	221,697043	138,622	0,018112	22,310000	52,575000
2,600030	280,066323	142,683	0,042744	22,300000	52,575000
2,680996	334,908870	146,745	0,065888	22,300000	52,585000
2,684051	335,778982	150,801	0,066255	22,300000	52,585000
2,684009	334,399761	154,857	0,065673	22,310000	52,560000
2,645005	303,658870	158,913	0,052700	22,300000	52,545000
2,563971	244,137154	162,969	0,027582	22,310000	52,575000
2,483011	182,116179	167,025	0,001409	22,310000	52,600000
2,459025	165,319072	170,967	-0,005679	22,300000	52,585000
2,539965	227,293765	175,023	0,020474	22,300000	52,585000
2,621018	287,309547	179,078	0,045801	22,310000	52,585000
2,702032	346,094213	183,134	0,070608	22,300000	52,575000
2,782999	404,095546	187,193	0,095084	22,310000	52,575000
2,851948	455,167219	191,255	0,116637	22,310000	52,575000
2,851961	452,721184	195,314	0,115604	22,300000	52,600000
2,852061	451,036498	199,370	0,114894	22,310000	52,575000
2,797976	408,116345	203,423	0,096781	22,300000	52,560000
2,717022	346,078014	207,480	0,070601	22,300000	52,615000
2,636025	286,572497	211,538	0,045490	22,300000	52,575000
2,555026	227,443026	215,596	0,020537	22,300000	52,585000
2,555000	228,822247	219,532	0,021119	22,300000	52,585000
2,636006	291,831356	223,593	0,047709	22,290000	52,580000
2,716964	351,760358	227,654	0,072999	22,300000	52,575000
2,798037	413,273382	231,713	0,098958	22,310000	52,575000
2,878944	471,979367	235,766	0,123731	22,310000	52,600000
2,959970	530,082522	239,826	0,148251	22,300000	52,625000
3,020003	573,818406	243,883	0,166708	22,300000	52,585000
3,019916	571,820155	247,975	0,165864	22,310000	52,575000
3,019971	570,605237	252,028	0,165352	22,300000	52,585000
2,957005	523,044098	256,084	0,145281	22,300000	52,600000
2,875933	460,888903	260,139	0,119051	22,300000	52,560000
2,794963	400,395253	264,199	0,093523	22,310000	52,585000
2,713993	338,075755	268,253	0,067224	22,310000	52,600000
2,633017	279,455393	272,312	0,042486	22,290000	52,595000
2,644991	289,706985	276,250	0,046812	22,320000	52,585000
2,725996	352,912794	280,305	0,073485	22,300000	52,625000
2,807050	412,372029	284,363	0,098577	22,300000	52,615000
2,888030	473,750833	288,420	0,124479	22,310000	52,585000
2,968958	533,820997	292,477	0,149829	22,310000	52,600000
3,049951	592,293256	296,537	0,174504	22,310000	52,600000
3,130946	651,147345	300,592	0,199340	22,300000	52,545000
3,187927	694,068656	304,652	0,217453	22,300000	52,585000
3,187961	692,289090	308,707	0,216702	22,310000	52,640000
3,187889	690,957309	312,761	0,216140	22,300000	52,600000
3,122018	639,265449	316,821	0,194326	22,300000	52,625000
3,040994	576,647429	320,875	0,167901	22,300000	52,560000
2,960013	515,574089	324,930	0,142128	22,310000	52,625000
2,879010	455,300281	328,987	0,116693	22,310000	52,600000
2,797983	397,786073	333,045	0,092422	22,300000	52,585000
2,716972	338,584864	337,101	0,067439	22,300000	52,615000
2,729057	346,736384	341,061	0,070879	22,290000	52,570000
2,810006	411,556298	345,120	0,098233	22,290000	52,570000
2,891001	472,810140	349,175	0,124082	22,300000	52,600000
2,972022	531,977794	353,232	0,149051	22,300000	52,615000
3,052969	593,554456	357,287	0,175036	22,310000	52,585000
3,133982	653,499658	361,343	0,200333	22,310000	52,560000
3,215021	713,208818	365,401	0,225530	22,300000	52,560000
3,295963	770,566823	369,456	0,249735	22,300000	52,585000
3,355928	815,808048	373,510	0,268827	22,300000	52,585000
3,355893	813,809797	377,563	0,267984	22,310000	52,625000
3,355924	812,821664	381,619	0,267567	22,300000	52,545000
3,292923	764,971259	385,675	0,247374	22,300000	52,600000
3,211939	700,048365	389,730	0,219977	22,310000	52,585000
3,130950	638,802623	393,786	0,194131	22,310000	52,625000
3,049945	577,924828	397,845	0,168440	22,300000	52,600000
2,969038	520,363179	401,900	0,144149	22,300000	52,600000
2,888027	460,332355	405,958	0,118816	22,310000	52,600000
2,806988	400,999241	410,018	0,093778	22,300000	52,585000
2,806991	401,861254	413,963	0,094142	22,300000	52,545000
2,888047	465,200126	418,019	0,120871	22,280000	52,580000
2,968935	524,134053	422,073	0,145741	22,300000	52,585000
3,049998	585,104414	426,129	0,171470	22,300000	52,585000
3,130944	645,599221	430,183	0,196999	22,300000	52,600000
3,211940	708,490308	434,240	0,223539	22,300000	52,600000
3,292926	766,813305	438,292	0,248151	22,310000	52,615000
3,373937	828,364512	442,345	0,274126	22,300000	52,650000
3,454948	887,259099	446,400	0,298979	22,310000	52,585000
3,523879	938,527473	450,454	0,320615	22,320000	52,615000
3,523903	936,002758	454,509	0,319549	22,290000	52,595000
3,523893	934,662878	458,567	0,318984	22,300000	52,575000
3,469940	893,678493	462,621	0,301688	22,310000	52,615000
3,388945	828,615595	466,677	0,274232	22,300000	52,600000
3,307947	768,529232	470,733	0,248875	22,310000	52,615000
3,226979	708,035582	474,792	0,223347	22,310000	52,625000
3,145955	647,659953	478,848	0,197869	22,300000	52,615000
3,064970	585,974526	482,904	0,171837	22,310000	52,585000
2,983988	527,605247	486,959	0,147206	22,310000	52,625000
2,902998	466,907953	491,019	0,121591	22,300000	52,600000
2,879014	451,020300	494,969	0,114887	22,300000	52,575000
2,959968	514,680835	499,027	0,141751	22,290000	52,595000
3,040973	574,084531	503,083	0,166820	22,310000	52,615000
3,121947	637,525224	507,145	0,193592	22,310000	52,615000
[...]
3,465524	891,311139	446,494	0,300723	22,300000	52,745000
3,534489	943,942536	450,549	0,322933	22,300000	52,800000
3,534517	941,505758	454,608	0,321905	22,300000	52,785000
3,534531	940,517624	458,664	0,321488	22,310000	52,770000
3,480584	899,203477	462,721	0,304053	22,300000	52,785000
3,399485	834,312981	466,781	0,276669	22,300000	52,760000
3,318557	772,643754	470,839	0,250645	22,310000	52,760000
3,237602	713,655445	474,898	0,225752	22,310000	52,800000
3,156626	651,202884	478,960	0,199397	22,310000	52,760000
3,075649	592,684344	483,019	0,174702	22,300000	52,810000
2,994623	531,343722	487,076	0,148816	22,290000	52,795000
2,913639	473,061223	491,135	0,124221	22,290000	52,780000
2,889626	454,625713	495,071	0,116441	22,310000	52,785000
2,970665	517,752842	499,131	0,143081	22,300000	52,800000
3,051579	579,124704	503,189	0,168980	22,300000	52,810000
3,132615	640,166802	507,244	0,194740	22,300000	52,810000
3,213552	703,175911	511,302	0,221330	22,300000	52,800000
3,294644	761,380887	515,361	0,245892	22,310000	52,785000
3,375601	821,889579	519,422	0,271427	22,300000	52,810000
3,456554	882,305706	523,480	0,296922	22,290000	52,780000
3,537565	943,057381	527,534	0,322560	22,310000	52,800000
3,618462	1002,704060	531,590	0,347730	22,310000	52,770000
3,699511	1064,686852	535,645	0,373887	22,310000	52,800000
3,702532	1064,460067	539,701	0,373792	22,310000	52,800000
3,702476	1063,041506	543,757	0,373193	22,300000	52,770000
3,663536	1033,727275	547,813	0,360822	22,310000	52,760000
3,582516	970,631387	551,869	0,334196	22,310000	52,800000
3,501500	906,085697	555,927	0,306958	22,310000	52,785000
3,420555	847,301031	559,984	0,282150	22,310000	52,800000
3,339566	786,211493	564,039	0,256371	22,300000	52,810000
3,258583	723,248667	568,097	0,229800	22,300000	52,770000
3,177594	662,889237	572,158	0,204329	22,300000	52,785000
3,096643	604,794181	576,214	0,179813	22,300000	52,770000
3,015665	545,295607	580,272	0,154704	22,310000	52,770000
2,934663	483,077931	584,329	0,128448	22,300000	52,785000
2,853631	426,314657	588,387	0,104494	22,300000	52,770000
2,772624	367,122704	592,440	0,079515	22,310000	52,785000
2,691706	308,369279	596,502	0,054721	22,300000	52,770000
2,610724	249,632053	600,560	0,029934	22,300000	52,800000
2,529651	191,685103	604,618	0,005480	22,310000	52,785000
2,448685	131,568656	608,672	-0,019889	22,310000	52,800000
2,367647	75,048365	612,727	-0,043740	22,310000	52,770000
2,286681	20,832948	616,782	-0,066619	22,300000	52,760000
2,205638	-35,270799	620,840	-0,090295	22,310000	52,770000
2,124704	-92,213418	624,899	-0,114325	22,320000	52,760000
2,043718	-145,394420	628,961	-0,136767	22,300000	52,800000
1,962719	-201,130221	633,018	-0,160288	22,310000	52,800000
1,881710	-255,470601	637,077	-0,183219	22,300000	52,810000
1,800710	-308,078856	641,133	-0,205420	22,310000	52,785000
1,719779	-359,434010	645,188	-0,227092	22,300000	52,785000
1,638751	-413,539507	649,242	-0,249924	22,300000	52,760000
1,557745	-463,192619	653,297	-0,270878	22,310000	52,800000
1,476770	-509,773724	657,354	-0,290535	22,300000	52,800000
1,395787	-555,484717	661,411	-0,309825	22,310000	52,785000
1,314711	-601,305632	665,469	-0,329162	22,310000	52,785000
1,233775	-638,395337	669,524	-0,344813	22,300000	52,810000
1,152746	-678,384645	673,580	-0,361689	22,310000	52,800000
1,071799	-708,434769	677,636	-0,374370	22,300000	52,785000
0,990767	-731,252083	681,692	-0,383999	22,310000	52,770000
0,909714	-736,808307	685,753	-0,386344	22,310000	52,785000
0,828721	0,109921	689,810	-0,075364	22,300000	52,760000
0,747745	-0,101822	693,864	-0,075454	22,310000	52,770000
0,690745	0,211743	696,720	-0,075321	22,300000	52,800000

File: EM-PDMS-150-10-150-20nms-3um-5
Quasi static measurement routine
Tip parameters (shape,radius, material...)
13.09.2022

Piezo position[nm]	MEMS displ.[nm]	Time[ms]	Cap [pf]	Temp [°C]	Rh [%]
eoh
0,669975	-0,023141	1,060	-0,075665	22,300000	52,140000
0,705963	0,070581	2,864	-0,075625	22,300000	52,180000
0,741988	0,023141	4,668	-0,075646	22,300000	52,165000
0,777955	0,062481	6,468	-0,075629	22,300000	52,165000
0,813991	-0,062481	8,271	-0,075682	22,300000	52,165000
0,849972	-0,188602	10,074	-0,075735	22,290000	52,135000
0,886000	0,062481	11,875	-0,075629	22,290000	52,135000
0,921954	-0,172403	13,676	-0,075728	22,290000	52,160000
0,957967	-0,086780	15,481	-0,075692	22,300000	52,165000
0,993994	-0,149261	17,284	-0,075718	22,300000	52,165000
1,030016	-0,172403	19,086	-0,075728	22,300000	52,180000
1,065976	-0,086780	20,888	-0,075692	22,300000	52,180000
1,102001	-0,062481	22,688	-0,075682	22,300000	52,155000
1,137966	-0,118021	24,493	-0,075705	22,300000	52,155000
1,173971	-0,126120	26,293	-0,075708	22,300000	52,155000
1,209940	0,023141	28,095	-0,075646	22,300000	52,195000
1,245957	-0,242984	29,897	-0,075758	22,300000	52,195000
1,281968	-0,251083	31,702	-0,075761	22,300000	52,180000
1,317963	-0,446627	33,504	-0,075844	22,300000	52,180000
1,353928	0,077523	35,308	-0,075623	22,300000	52,165000
1,389964	-0,267282	37,112	-0,075768	22,300000	52,165000
1,425984	-0,195544	38,914	-0,075738	22,290000	52,200000
1,461977	-0,352905	40,720	-0,075804	22,300000	52,165000
1,497989	-0,313564	42,522	-0,075788	22,300000	52,165000
1,534032	-0,141162	44,324	-0,075715	22,300000	52,165000
1,569997	-0,337863	46,126	-0,075798	22,300000	52,155000
1,605962	-0,016199	47,932	-0,075662	22,300000	52,155000
1,641908	0,038183	49,733	-0,075639	22,300000	52,140000
1,677974	-0,337863	51,533	-0,075798	22,290000	52,150000
1,713915	-6,371955	53,334	-0,078344	22,290000	52,150000
1,749955	-9,617521	55,136	-0,079714	22,300000	52,180000
1,785890	-11,765033	56,939	-0,080620	22,300000	52,140000
1,821923	-213,271299	58,744	-0,165656	22,300000	52,140000
1,857939	-197,869613	60,546	-0,159156	22,310000	52,155000
1,893912	-177,225267	62,348	-0,150444	22,310000	52,155000
1,929952	-154,016865	64,152	-0,140650	22,300000	52,180000
1,965923	-132,258266	65,953	-0,131468	22,300000	52,140000
2,001889	-110,594546	67,756	-0,122326	22,300000	52,140000
2,037903	-87,448626	69,559	-0,112559	22,310000	52,195000
2,073927	-64,601229	71,360	-0,102917	22,300000	52,195000
2,109903	-39,041673	73,164	-0,092131	22,300000	52,195000
2,145912	-16,334281	74,968	-0,082548	22,300000	52,155000
2,181940	6,756100	76,771	-0,072804	22,300000	52,195000
2,217895	33,146429	78,574	-0,061667	22,300000	52,180000
2,253928	57,295524	80,375	-0,051477	22,300000	52,180000
2,289938	80,879971	82,179	-0,041524	22,300000	52,180000
2,325943	104,612522	83,982	-0,031509	22,290000	52,160000
2,361914	128,142587	85,786	-0,021579	22,290000	52,160000
2,397919	152,378462	87,587	-0,011352	22,300000	52,165000
2,433970	176,715001	89,388	-0,001082	22,300000	52,205000
2,469940	203,042848	91,192	0,010029	22,300000	52,180000
2,505968	225,740984	92,995	0,019607	22,300000	52,180000
2,541934	249,937519	94,798	0,029818	22,300000	52,180000
2,577913	274,007933	96,598	0,039976	22,300000	52,180000
2,613916	298,406953	98,400	0,050272	22,300000	52,180000
2,649947	325,345731	100,205	0,061641	22,300000	52,155000
2,685936	348,938278	102,009	0,071597	22,300000	52,155000
2,721927	373,345398	103,811	0,081896	22,290000	52,160000
2,757878	398,412045	105,614	0,092475	22,290000	52,200000
2,793861	423,242650	107,418	0,102953	22,300000	52,180000
2,829901	449,147012	109,222	0,113885	22,300000	52,180000
2,865908	475,090714	111,025	0,124833	22,290000	52,190000
2,901920	499,732718	112,828	0,135232	22,290000	52,190000
2,937910	527,432844	114,635	0,146921	22,300000	52,165000
2,973836	552,835040	116,439	0,157641	22,300000	52,165000
3,009872	577,243317	118,244	0,167941	22,300000	52,165000
3,045849	602,316906	120,047	0,178522	22,300000	52,155000
3,081868	630,352581	121,850	0,190354	22,300000	52,155000
3,117889	656,547366	123,654	0,201408	22,300000	52,180000
3,153845	680,218593	125,454	0,211397	22,300000	52,180000
3,189839	706,122954	127,254	0,222329	22,300000	52,180000
3,225788	732,112939	129,055	0,233296	22,290000	52,150000
3,261800	758,095981	130,856	0,244261	22,300000	52,195000
3,297791	784,588131	132,658	0,255441	22,300000	52,195000
3,333848	810,602414	134,462	0,266419	22,300000	52,195000
3,369712	837,314407	136,264	0,277691	22,300000	52,140000
3,405790	864,912711	138,066	0,289338	22,300000	52,180000
3,441768	888,951885	139,869	0,299482	22,300000	52,165000
3,477731	917,755850	141,674	0,311638	22,300000	52,165000
3,513786	943,205485	143,479	0,322377	22,300000	52,220000
3,549714	969,878138	145,281	0,333633	22,300000	52,165000
3,585738	994,490059	147,085	0,344020	22,290000	52,175000
3,621754	1020,151437	148,888	0,354849	22,290000	52,190000
3,657791	1048,948460	150,690	0,367001	22,300000	52,180000
3,669789	1056,371029	152,492	0,370133	22,300000	52,180000
3,669644	1055,171153	154,295	0,369627	22,290000	52,175000
3,669778	1054,434103	156,100	0,369316	22,290000	52,175000
3,669684	1053,540849	157,905	0,368939	22,300000	52,180000
3,669776	1053,008599	159,707	0,368714	22,300000	52,140000
3,666733	1052,334031	161,510	0,368430	22,300000	52,140000
3,630728	1023,364605	163,312	0,356205	22,300000	52,180000
3,594721	994,976026	165,114	0,344225	22,290000	52,160000
3,558770	966,853571	166,916	0,332357	22,290000	52,160000
3,522778	938,989142	168,722	0,320598	22,300000	52,155000
3,486716	911,398937	170,524	0,308955	22,300000	52,155000
3,450767	883,018457	172,327	0,296979	22,290000	52,175000
3,414816	856,345805	174,132	0,285723	22,290000	52,175000
3,378852	829,241567	175,934	0,274285	22,300000	52,195000
3,342776	802,184769	177,735	0,262867	22,290000	52,160000
3,306837	773,387746	179,536	0,250714	22,290000	52,160000
3,270855	748,016791	181,340	0,240008	22,300000	52,165000
3,234823	720,301624	183,141	0,228312	22,300000	52,155000
3,198850	694,459743	184,945	0,217407	22,290000	52,160000
3,162843	667,693369	186,749	0,206111	22,290000	52,160000
3,126880	640,158703	188,553	0,194492	22,300000	52,155000
3,090864	613,015125	190,356	0,183037	22,300000	52,155000
3,054871	585,692202	192,158	0,171507	22,290000	52,190000
3,018861	561,841630	193,962	0,161442	22,290000	52,190000
2,982822	535,302040	195,764	0,150242	22,290000	52,175000
2,946859	509,107255	197,571	0,139188	22,300000	52,180000
2,910952	480,224609	199,375	0,127000	22,300000	52,180000
2,874859	456,216677	201,176	0,116868	22,300000	52,180000
2,838848	427,733218	202,978	0,104848	22,300000	52,205000
2,802901	404,306132	204,782	0,094962	22,300000	52,195000
2,766910	375,712752	206,587	0,082896	22,300000	52,205000
2,730884	351,540516	208,390	0,072695	22,300000	52,205000
2,694856	325,792358	210,192	0,061829	22,300000	52,155000
2,658880	297,137654	211,993	0,049737	22,300000	52,165000
2,622934	271,327014	213,795	0,038845	22,300000	52,165000
2,586899	246,347147	215,597	0,028303	22,290000	52,190000
2,550866	220,262283	217,401	0,017295	22,290000	52,190000
2,514956	195,769541	219,203	0,006959	22,300000	52,180000
2,478955	171,313824	221,006	-0,003361	22,300000	52,140000
2,442932	145,778566	222,811	-0,014137	22,290000	52,160000
2,406919	120,022308	224,612	-0,025006	22,290000	52,200000
2,370917	95,121122	226,416	-0,035514	22,290000	52,200000
2,334955	69,052457	228,219	-0,046515	22,300000	52,155000
2,298885	43,296199	230,021	-0,057384	22,300000	52,220000
2,262920	21,679919	231,824	-0,066506	22,300000	52,165000
2,226890	-5,055215	233,627	-0,077789	22,300000	52,165000
2,190913	-27,723267	235,430	-0,087354	22,290000	52,160000
2,154865	-53,573247	237,233	-0,098263	22,310000	52,165000
2,118893	-76,929752	239,035	-0,108120	22,310000	52,165000
2,082928	-100,256174	240,840	-0,117963	22,300000	52,140000
2,046945	-125,282324	242,645	-0,128524	22,300000	52,140000
2,010893	-147,668052	244,446	-0,137971	22,300000	52,140000
1,974914	-170,891495	246,248	-0,147771	22,290000	52,160000
1,938971	-195,212992	248,053	-0,158035	22,290000	52,200000
1,902930	-219,487050	249,854	-0,168279	22,290000	52,225000
1,866917	-244,035332	251,658	-0,178638	22,290000	52,225000
1,830983	-268,184427	253,463	-0,188829	22,300000	52,155000
1,794941	-290,695118	255,266	-0,198329	22,300000	52,155000
1,758973	-313,463835	257,068	-0,207937	22,300000	52,195000
1,722974	-337,699709	258,873	-0,218165	22,300000	52,205000
1,686907	-357,435760	260,674	-0,226493	22,310000	52,165000
1,650944	-378,511691	262,477	-0,235387	22,310000	52,165000
1,614972	-402,856330	264,282	-0,245661	22,310000	52,180000
1,578975	-423,869779	266,085	-0,254528	22,300000	52,180000
1,542971	-446,859495	267,890	-0,264230	22,290000	52,175000
1,506929	-466,516865	269,692	-0,272525	22,310000	52,180000
1,470911	-486,479700	271,494	-0,280950	22,290000	52,160000
1,434983	-508,198960	273,295	-0,290115	22,290000	52,160000
1,398986	-525,795598	275,098	-0,297541	22,290000	52,190000
1,363036	-549,135904	276,900	-0,307391	22,310000	52,195000
1,326904	-567,837539	278,702	-0,315283	22,300000	52,165000
1,291009	-585,309214	280,506	-0,322656	22,300000	52,165000
1,254986	-602,551790	282,308	-0,329932	22,290000	52,135000
1,218955	-616,009608	284,110	-0,335611	22,300000	52,180000
1,182960	-633,598147	285,914	-0,343034	22,300000	52,165000
1,146945	-652,064897	287,716	-0,350827	22,290000	52,150000
1,111003	-664,880545	289,520	-0,356235	22,300000	52,180000
1,074998	-677,256507	291,322	-0,361458	22,290000	52,200000
1,038982	-686,293182	293,124	-0,365271	22,300000	52,195000
1,002932	-696,718333	294,927	-0,369670	22,300000	52,195000
0,966989	-703,074089	296,730	-0,372353	22,290000	52,160000
0,931038	-703,277733	298,535	-0,372438	22,290000	52,160000
0,895049	-647,055965	300,338	-0,348713	22,300000	52,205000
0,858976	-0,227942	302,145	-0,075751	22,300000	52,180000
0,822979	-0,101822	303,948	-0,075698	22,300000	52,180000
0,787017	0,133062	305,750	-0,075599	22,290000	52,190000
0,751005	0,376046	307,555	-0,075497	22,290000	52,175000
0,714957	0,344805	309,360	-0,075510	22,300000	52,205000
0,678944	0,038183	311,162	-0,075639	22,310000	52,195000
0,670045	0,156204	311,614	-0,075589	22,310000	52,195000