Folder: Nanoindentation_Analysis/Nanoindentation Datenauswertung/data/PDMS/14.09

File: APM-PDMS-150ms,3um,20nms,9cycles,1,5um offset,25%,9x1-6
Quasi static measurement routine
Tip parameters (shape,radius, material...)
14.09.2022

Piezo position[nm]	MEMS displ.[nm]	Time[ms]	Cap [pf]	Temp [°C]	Rh [%]
eoh

X-Pos [um]	Y-Pos [um]
0,000018	0,000753

POC
1,825984
0,422180	0,023141	5,864	-0,075642	22,280000	51,515000
0,521137	-0,142319	10,822	-0,075712	22,280000	51,530000
0,620106	-0,039340	15,776	-0,075668	22,270000	51,515000
0,719148	-0,219842	20,730	-0,075745	22,270000	51,490000
0,818089	-0,306622	25,688	-0,075781	22,250000	51,500000
0,917114	-0,142319	30,645	-0,075712	22,270000	51,490000
1,016132	-0,180502	35,604	-0,075728	22,270000	51,515000
1,115118	-0,173560	40,566	-0,075725	22,270000	51,490000
1,214155	-0,321664	45,526	-0,075788	22,270000	51,475000
1,313115	-0,361004	50,486	-0,075804	22,280000	51,505000
1,412132	-0,242984	55,440	-0,075754	22,280000	51,490000
1,511111	-0,502166	60,398	-0,075864	22,270000	51,505000
1,610103	-0,485967	65,356	-0,075857	22,260000	51,515000
1,709059	-0,870113	70,318	-0,076019	22,280000	51,515000
1,808099	1,285499	75,278	-0,075109	22,280000	51,475000
1,907034	-152,723267	80,237	-0,140101	22,270000	51,515000
1,994093	-101,612254	85,198	-0,118532	22,270000	51,505000
1,994029	-106,291423	90,160	-0,120507	22,270000	51,515000
1,985053	-113,016282	95,115	-0,123345	22,270000	51,490000
1,886048	-187,908444	100,072	-0,154949	22,270000	51,490000
1,946104	-141,813305	104,910	-0,135497	22,280000	51,475000
2,045057	-72,289923	109,872	-0,106158	22,260000	51,475000
2,144067	-3,675994	114,830	-0,077203	22,280000	51,475000
2,162052	4,404945	119,795	-0,073793	22,270000	51,490000
2,162086	2,264375	124,752	-0,074696	22,270000	51,515000
2,084077	-54,435260	129,708	-0,098624	22,270000	51,475000
1,985134	-128,073164	134,665	-0,129699	22,280000	51,490000
1,931142	-165,263533	139,500	-0,145393	22,270000	51,475000
2,030019	-91,187102	144,459	-0,114133	22,260000	51,515000
2,129074	-18,381128	149,416	-0,083409	22,270000	51,505000
2,228070	48,500676	154,375	-0,055185	22,270000	51,505000
2,327057	115,671745	159,337	-0,026838	22,280000	51,450000
2,330073	115,986467	164,294	-0,026706	22,270000	51,490000
2,330006	113,767217	169,256	-0,027642	22,270000	51,505000
2,237057	44,378055	174,211	-0,056924	22,270000	51,465000
2,138028	-28,593380	179,171	-0,087718	22,280000	51,450000
2,039098	-95,710067	184,132	-0,116042	22,270000	51,515000
1,961070	-152,151677	188,972	-0,139860	22,270000	51,490000
2,060043	-76,343121	193,926	-0,107869	22,270000	51,490000
2,159029	-4,617845	198,887	-0,077601	22,270000	51,465000
2,258057	66,873704	203,846	-0,047431	22,270000	51,505000
2,357020	134,483301	208,808	-0,018900	22,270000	51,490000
2,456048	204,437111	213,765	0,010621	22,270000	51,515000
2,498022	229,761784	218,723	0,021308	22,280000	51,475000
2,497977	227,151446	223,684	0,020206	22,270000	51,475000
2,444045	184,881563	228,644	0,002368	22,270000	51,505000
2,345025	110,788933	233,600	-0,028899	22,270000	51,475000
2,246053	42,191203	238,557	-0,057847	22,270000	51,475000
2,147067	-28,695201	243,518	-0,087761	22,270000	51,450000
2,048076	-97,191110	248,479	-0,116667	22,280000	51,465000
2,035964	-102,215084	253,330	-0,118787	22,270000	51,505000
2,135065	-25,936759	258,292	-0,086597	22,270000	51,490000
2,234032	43,641005	263,258	-0,057235	22,260000	51,475000
2,333001	113,266208	268,216	-0,027854	22,270000	51,475000
2,432039	185,203227	273,176	0,002504	22,260000	51,475000
2,531020	251,183677	278,138	0,030348	22,260000	51,475000
2,630050	322,226285	283,096	0,060328	22,270000	51,475000
2,666001	343,663220	288,051	0,069374	22,270000	51,490000
2,666014	341,060982	293,012	0,068276	22,280000	51,490000
2,606082	295,757276	297,973	0,049158	22,280000	51,515000
2,507038	219,807557	302,934	0,017107	22,280000	51,475000
2,408048	150,277233	307,892	-0,012235	22,270000	51,465000
2,309106	80,738809	312,848	-0,041580	22,270000	51,475000
2,210028	11,152945	317,812	-0,070945	22,280000	51,505000
2,111089	-57,923810	322,778	-0,100096	22,250000	51,460000
2,057053	-92,339538	327,615	-0,114619	22,260000	51,475000
2,156010	-18,364929	332,573	-0,083402	22,270000	51,490000
2,255077	55,539100	337,533	-0,052214	22,280000	51,515000
2,354033	125,901353	342,492	-0,022521	22,270000	51,490000
2,453022	193,284166	347,450	0,005914	22,260000	51,515000
2,552006	262,650187	352,405	0,035187	22,270000	51,505000
2,651004	331,812565	357,364	0,064373	22,270000	51,490000
2,750037	403,772725	362,323	0,094740	22,270000	51,505000
2,834012	461,578514	367,284	0,119134	22,280000	51,505000
2,834026	458,223027	372,244	0,117718	22,280000	51,465000
2,822049	448,684186	377,201	0,113693	22,270000	51,490000
2,723017	373,102414	382,165	0,081797	22,260000	51,465000
2,624093	299,645013	387,129	0,050798	22,270000	51,475000
2,525061	227,622371	392,090	0,020405	22,260000	51,475000
2,426012	155,230626	397,050	-0,010145	22,260000	51,490000
2,327063	87,015884	402,012	-0,038931	22,270000	51,515000
2,228098	18,631054	406,971	-0,067790	22,270000	51,475000
2,129032	-49,144004	411,929	-0,096391	22,270000	51,490000
2,123046	-51,237133	416,781	-0,097274	22,270000	51,475000
2,222115	24,265958	421,740	-0,065412	22,280000	51,515000
2,321112	95,763292	426,700	-0,035240	22,280000	51,505000
2,420055	166,462252	431,660	-0,005405	22,280000	51,475000
2,519068	237,340557	436,622	0,024506	22,270000	51,490000
2,618056	306,134988	441,583	0,053537	22,260000	51,490000
2,717136	375,893254	446,542	0,082975	22,270000	51,475000
2,816043	445,697803	451,502	0,112433	22,260000	51,490000
2,915030	518,849739	456,463	0,143303	22,270000	51,490000
3,002029	580,550207	461,420	0,169340	22,270000	51,505000
3,002069	577,767467	466,380	0,168166	22,280000	51,505000
2,993032	571,364272	471,337	0,165464	22,280000	51,505000
2,894015	492,372630	476,298	0,132129	22,280000	51,490000
2,795055	417,747751	481,256	0,100638	22,270000	51,505000
2,696076	344,024224	486,211	0,069526	22,260000	51,475000
2,597056	272,008525	491,168	0,039136	22,270000	51,515000
2,498089	201,129064	496,124	0,009225	22,270000	51,505000
2,399078	131,050291	501,081	-0,020349	22,270000	51,515000
2,300063	64,263366	506,041	-0,048533	22,260000	51,505000
2,201086	-3,355487	511,003	-0,077068	22,280000	51,490000
2,135086	-47,749741	515,835	-0,095802	22,280000	51,490000
2,234100	27,487226	520,798	-0,064052	22,270000	51,505000
2,333078	102,456911	525,758	-0,032415	22,270000	51,465000
2,432118	173,116530	530,720	-0,002597	22,280000	51,475000
2,531085	243,925411	535,678	0,027285	22,270000	51,450000
2,630084	313,918561	540,634	0,056822	22,270000	51,465000
2,729023	381,355756	545,591	0,085280	22,280000	51,475000
2,828051	451,890412	550,547	0,115046	22,280000	51,490000
2,927012	524,743826	555,509	0,145790	22,280000	51,505000
3,026054	595,787591	560,468	0,175771	22,270000	51,465000
3,125020	666,250509	565,434	0,205506	22,270000	51,515000
3,169948	699,381896	570,389	0,219487	22,270000	51,490000
3,170007	697,469268	575,351	0,218680	22,280000	51,475000
3,119004	658,922819	580,313	0,202414	22,270000	51,490000
3,019992	580,111680	585,267	0,169155	22,280000	51,505000
2,921038	507,046523	590,226	0,138322	22,270000	51,505000
2,822032	432,264283	595,183	0,106764	22,280000	51,475000
2,723007	359,974359	600,144	0,076257	22,250000	51,470000
2,623994	289,464001	605,103	0,046502	22,270000	51,490000
2,525051	218,976785	610,062	0,016756	22,270000	51,490000
2,426079	146,154612	615,026	-0,013975	22,280000	51,465000
[...]
3,064033	615,335040	545,688	0,184076	22,270000	51,400000
3,163036	688,393254	550,648	0,214906	22,270000	51,370000
3,262033	761,184186	555,606	0,245624	22,280000	51,400000
3,360969	836,546116	560,560	0,277427	22,260000	51,385000
3,459895	909,494409	565,518	0,308211	22,270000	51,400000
3,504979	940,588205	570,474	0,321333	22,270000	51,385000
3,504943	938,565656	575,439	0,320479	22,270000	51,385000
3,453957	899,666303	580,398	0,304063	22,280000	51,425000
3,355013	823,214418	585,354	0,271801	22,270000	51,370000
3,255980	746,440869	590,314	0,239402	22,270000	51,410000
3,157029	671,706069	595,272	0,207864	22,260000	51,385000
3,058070	597,143670	600,226	0,176399	22,270000	51,400000
2,959071	524,407120	605,186	0,145704	22,270000	51,425000
2,860067	451,608088	610,141	0,114983	22,270000	51,400000
2,761073	380,854747	615,101	0,085125	22,280000	51,400000
2,662063	307,522308	620,056	0,054179	22,270000	51,385000
2,563089	237,051290	625,015	0,024440	22,270000	51,410000
2,527119	211,883979	629,855	0,013819	22,280000	51,385000
2,626081	291,031824	634,810	0,047220	22,270000	51,385000
2,725087	365,170736	639,773	0,078506	22,260000	51,400000
2,824052	436,707411	644,732	0,108695	22,270000	51,400000
2,923044	512,132979	649,694	0,140524	22,270000	51,410000
3,022067	583,521549	654,652	0,170650	22,270000	51,410000
3,120994	658,115188	659,612	0,202129	22,280000	51,360000
3,220019	728,445044	664,570	0,231808	22,270000	51,400000
3,318925	803,353405	669,528	0,263419	22,270000	51,400000
3,417985	875,015042	674,489	0,293661	22,270000	51,400000
3,516939	949,107672	679,443	0,324928	22,270000	51,425000
3,615895	1021,342056	684,402	0,355411	22,270000	51,385000
3,672843	1064,583873	689,359	0,373659	22,270000	51,400000
3,672904	1062,523141	694,320	0,372789	22,270000	51,400000
3,633901	1032,770383	699,280	0,360233	22,270000	51,425000
3,534944	955,566406	704,239	0,327653	22,280000	51,385000
3,435944	878,574172	709,200	0,295163	22,270000	51,410000
3,337035	803,258525	714,157	0,263379	22,270000	51,410000
3,238042	730,608755	719,118	0,232721	22,270000	51,400000
3,138997	654,549115	724,074	0,200624	22,280000	51,425000
3,040110	581,993067	729,031	0,170005	22,270000	51,410000
2,941017	508,903612	733,984	0,139162	22,260000	51,400000
2,842052	437,593722	738,943	0,109069	22,270000	51,370000
2,743058	364,661628	743,901	0,078292	22,270000	51,410000
2,644045	294,213751	748,863	0,048563	22,270000	51,385000
2,545061	221,508442	753,824	0,017881	22,260000	51,385000
2,446068	153,467260	758,779	-0,010833	22,270000	51,400000
2,347107	83,592130	763,739	-0,040320	22,270000	51,400000
2,248063	11,881896	768,693	-0,070582	22,270000	51,385000
2,149167	-56,856996	773,648	-0,099589	22,280000	51,425000
2,050133	-122,499583	778,604	-0,127291	22,270000	51,400000
1,951116	-190,055956	783,561	-0,155799	22,270000	51,425000
1,852109	-259,052873	788,519	-0,184916	22,270000	51,400000
1,753152	-319,390320	793,478	-0,210378	22,280000	51,400000
1,654120	-382,932835	798,436	-0,237193	22,270000	51,370000
1,555154	-448,105654	803,396	-0,264696	22,270000	51,400000
1,456200	-507,383229	808,358	-0,289711	22,280000	51,410000
1,357148	-567,179169	813,315	-0,314945	22,270000	51,410000
1,258170	-624,615855	818,275	-0,339184	22,270000	51,370000
1,159160	-666,542089	823,231	-0,356876	22,270000	51,370000
1,060138	-710,481617	828,192	-0,375419	22,270000	51,410000
0,961115	-740,109412	833,149	-0,387922	22,270000	51,425000
0,862177	-711,742817	838,112	-0,375951	22,270000	51,425000
0,763122	0,054382	843,074	-0,075573	22,270000	51,400000
0,664164	0,101822	848,029	-0,075553	22,260000	51,410000
0,661152	0,234884	848,179	-0,075497	22,260000	51,410000

File: APM-PDMS-150ms,4um,7nms,9cycles,1,5um offset,75%,5x1-8
Quasi static measurement routine
Tip parameters (shape,radius, material...)
14.09.2022

Piezo position[nm]	MEMS displ.[nm]	Time[ms]	Cap [pf]	Temp [°C]	Rh [%]
eoh

X-Pos [um]	Y-Pos [um]
0,000274	0,001057

POC
1,831998
0,387126	-0,219842	9,317	-0,075341	22,270000	51,370000
0,443129	-0,093722	17,733	-0,075288	22,270000	51,385000
0,499109	0,000000	26,149	-0,075249	22,270000	51,400000
0,555128	-0,454726	34,565	-0,075440	22,270000	51,410000
0,611125	-0,118021	42,982	-0,075298	22,280000	51,400000
0,667108	-0,124963	51,396	-0,075301	22,270000	51,410000
0,723085	-0,227942	59,812	-0,075345	22,270000	51,425000
0,779106	-0,540349	68,232	-0,075477	22,260000	51,425000
0,835097	-0,251083	76,642	-0,075354	22,260000	51,425000
0,891121	-0,344805	85,054	-0,075394	22,260000	51,425000
0,947109	-0,407287	93,471	-0,075420	22,270000	51,410000
1,003129	-0,219842	101,884	-0,075341	22,280000	51,360000
1,059098	-0,548449	110,296	-0,075480	22,260000	51,425000
1,115123	-0,400344	118,704	-0,075417	22,270000	51,400000
1,171129	-0,485967	127,118	-0,075454	22,280000	51,385000
1,227081	-0,376046	135,530	-0,075407	22,270000	51,400000
1,283147	-0,454726	143,942	-0,075440	22,270000	51,410000
1,339061	-0,838872	152,349	-0,075603	22,280000	51,400000
1,395077	-0,446627	160,762	-0,075437	22,260000	51,410000
1,451098	-0,627129	169,176	-0,075513	22,270000	51,400000
1,507112	-1,019374	177,592	-0,075679	22,280000	51,370000
1,563128	-0,955735	186,012	-0,075652	22,260000	51,400000
1,619077	-1,214918	194,425	-0,075761	22,270000	51,385000
1,675102	-1,528482	202,841	-0,075894	22,270000	51,400000
1,731075	-1,967010	211,250	-0,076079	22,270000	51,410000
1,787085	-1,928827	219,655	-0,076063	22,270000	51,385000
1,843092	-193,707651	228,068	-0,156993	22,270000	51,385000
1,899055	-165,342213	236,484	-0,145023	22,260000	51,370000
1,955059	-130,972767	244,906	-0,130519	22,270000	51,370000
1,999070	-103,116438	253,318	-0,118764	22,270000	51,400000
1,998055	-105,820498	261,737	-0,119905	22,260000	51,400000
1,971098	-126,183677	270,035	-0,128498	22,270000	51,385000
2,027073	-86,366771	278,443	-0,111695	22,270000	51,370000
2,083068	-49,183344	286,860	-0,096004	22,270000	51,385000
2,139047	-11,528991	295,277	-0,080114	22,260000	51,400000
2,166021	4,538007	303,693	-0,073333	22,260000	51,370000
2,148046	-10,691277	312,108	-0,079760	22,280000	51,370000
2,092077	-51,347055	320,517	-0,096917	22,270000	51,400000
2,127044	-25,543358	328,818	-0,086028	22,260000	51,410000
2,183053	13,715843	337,233	-0,069460	22,270000	51,400000
2,239043	52,373371	345,647	-0,053147	22,260000	51,385000
2,294995	90,371371	354,061	-0,037112	22,280000	51,400000
2,333081	115,398678	362,479	-0,026550	22,280000	51,370000
2,326106	109,018624	370,894	-0,029243	22,270000	51,385000
2,270055	65,854330	379,315	-0,047458	22,270000	51,385000
2,214052	25,097888	387,731	-0,064657	22,270000	51,425000
2,257057	57,687768	396,036	-0,050904	22,260000	51,385000
2,313047	98,335447	404,452	-0,033751	22,260000	51,385000
2,369045	136,765033	412,872	-0,017534	22,270000	51,385000
2,425026	176,353997	421,291	-0,000827	22,280000	51,370000
2,481119	214,259432	429,704	0,015169	22,260000	51,385000
2,500034	226,000167	438,120	0,020124	22,270000	51,410000
2,474070	204,704393	446,531	0,011137	22,260000	51,410000
2,418100	163,492067	454,948	-0,006255	22,270000	51,400000
2,362092	121,762533	463,364	-0,023865	22,270000	51,425000
2,359066	121,355247	471,663	-0,024037	22,270000	51,370000
2,415061	163,265283	480,080	-0,006351	22,270000	51,400000
2,471054	203,317073	488,495	0,010551	22,270000	51,385000
2,527078	242,781074	496,912	0,027205	22,260000	51,410000
2,583038	282,315656	505,322	0,043889	22,270000	51,410000
2,639042	321,176827	513,734	0,060288	22,280000	51,385000
2,667024	339,078930	522,152	0,067843	22,270000	51,385000
2,650049	324,719759	530,570	0,061783	22,270000	51,410000
2,594053	281,845888	538,984	0,043690	22,270000	51,435000
2,538016	241,127629	547,402	0,026507	22,270000	51,410000
2,482084	199,844722	555,816	0,009086	22,270000	51,425000
2,489029	207,815740	564,108	0,012450	22,270000	51,370000
2,545059	248,996825	572,524	0,029828	22,270000	51,410000
2,601046	290,286674	580,940	0,047252	22,270000	51,410000
2,657023	330,300281	589,354	0,064138	22,270000	51,400000
2,713030	370,304632	597,771	0,081020	22,270000	51,400000
2,769056	410,145836	606,189	0,097833	22,260000	51,400000
2,825092	449,742900	614,605	0,114543	22,270000	51,410000
2,834027	454,837456	623,028	0,116693	22,260000	51,400000
2,798070	426,816823	631,449	0,104868	22,280000	51,370000
2,742029	383,535665	639,862	0,086604	22,280000	51,385000
2,686070	342,252758	648,275	0,069182	22,280000	51,400000
2,630021	301,111013	656,695	0,051820	22,270000	51,410000
2,591032	273,607588	664,989	0,040214	22,270000	51,345000
2,647039	316,199135	673,408	0,058188	22,260000	51,410000
2,703082	358,680761	681,823	0,076115	22,270000	51,410000
2,759048	399,085456	690,241	0,093166	22,260000	51,435000
2,815021	440,565064	698,658	0,110670	22,270000	51,400000
2,871001	480,272049	707,074	0,127426	22,260000	51,410000
2,927028	521,883562	715,489	0,144986	22,280000	51,385000
2,983018	561,904112	723,897	0,161875	22,270000	51,370000
3,000989	573,403019	732,307	0,166728	22,270000	51,410000
2,974023	551,472018	740,722	0,157473	22,270000	51,410000
2,918006	507,924735	749,138	0,139096	22,270000	51,400000
2,862025	466,390745	757,554	0,121568	22,280000	51,410000
2,806046	424,982875	765,965	0,104094	22,260000	51,425000
2,750044	383,880471	774,380	0,086749	22,270000	51,400000
2,723076	363,619113	782,685	0,078199	22,280000	51,400000
2,779046	407,190693	791,097	0,096586	22,280000	51,410000
2,835044	449,178253	799,515	0,114305	22,270000	51,360000
2,891069	491,549957	807,931	0,132186	22,280000	51,400000
2,947021	532,441777	816,338	0,149442	22,270000	51,385000
3,003004	572,830273	824,758	0,166486	22,270000	51,385000
3,059043	613,995159	833,181	0,183857	22,280000	51,410000
3,115029	654,588455	841,595	0,200988	22,270000	51,385000
3,168033	693,472767	850,012	0,217397	22,270000	51,400000
3,167991	692,100489	858,428	0,216818	22,280000	51,370000
3,120007	654,399854	866,850	0,200908	22,270000	51,425000
3,064038	611,385978	875,263	0,182756	22,270000	51,385000
3,008032	569,766366	883,682	0,165193	22,280000	51,410000
2,952017	528,051874	892,099	0,147589	22,270000	51,385000
2,896036	486,417219	900,511	0,130020	22,280000	51,400000
2,840017	445,392337	908,931	0,112707	22,270000	51,360000
2,883023	479,150853	917,232	0,126953	22,270000	51,385000
2,939103	521,451977	925,645	0,144804	22,270000	51,360000
2,995037	563,918561	934,058	0,162725	22,270000	51,400000
3,050971	605,710576	942,476	0,180361	22,270000	51,370000
3,106990	646,421894	950,893	0,197542	22,270000	51,370000
3,163043	687,633062	959,302	0,214933	22,270000	51,400000
3,219011	728,884729	967,726	0,232341	22,280000	51,400000
3,275027	770,425661	976,146	0,249871	22,270000	51,410000
3,330977	811,637987	984,564	0,267263	22,270000	51,435000
3,334986	812,500000	992,972	0,267626	22,270000	51,385000
3,294007	780,215584	1001,391	0,254002	22,270000	51,360000
3,238011	736,330439	1009,811	0,235483	22,270000	51,385000
3,181993	694,577764	1018,226	0,217863	22,280000	51,385000
3,126032	651,861254	1026,642	0,199837	22,260000	51,335000
3,070023	609,967417	1035,061	0,182158	22,270000	51,400000
3,014072	568,072423	1043,477	0,164478	22,280000	51,385000
[...]
3,321524	794,997084	934,252	0,260012	22,280000	51,305000
3,377497	837,997075	942,672	0,278158	22,270000	51,265000
3,433486	879,969592	951,086	0,295871	22,270000	51,265000
3,489469	921,408703	959,505	0,313358	22,260000	51,255000
3,545470	963,396262	967,916	0,331077	22,270000	51,265000
3,601482	1005,040173	976,334	0,348650	22,270000	51,280000
3,657458	1046,400604	984,750	0,366104	22,270000	51,255000
3,661465	1047,654862	993,160	0,366634	22,260000	51,280000
3,620453	1015,855256	1001,581	0,353214	22,280000	51,295000
3,564499	972,025650	1009,992	0,334718	22,270000	51,320000
3,508472	929,176077	1018,400	0,316636	22,270000	51,295000
3,452471	886,364688	1026,814	0,298569	22,260000	51,295000
3,396511	844,901279	1035,231	0,281072	22,280000	51,305000
3,340527	802,960003	1043,650	0,263373	22,270000	51,265000
3,284552	760,854423	1052,068	0,245604	22,270000	51,280000
3,228473	718,851822	1060,483	0,227879	22,260000	51,265000
3,172584	677,600156	1068,899	0,210471	22,270000	51,295000
3,116593	635,337215	1077,317	0,192636	22,270000	51,295000
3,060482	594,728877	1085,733	0,175499	22,270000	51,265000
3,004565	552,866280	1094,144	0,157833	22,270000	51,255000
2,948602	512,257942	1102,559	0,140696	22,260000	51,295000
2,892615	471,774567	1110,974	0,123612	22,270000	51,305000
2,836593	431,471694	1119,384	0,106604	22,260000	51,280000
2,780582	391,294940	1127,797	0,089650	22,270000	51,265000
2,724620	351,007109	1136,215	0,072648	22,270000	51,295000
2,668623	309,802882	1144,632	0,055260	22,270000	51,295000
2,612579	269,257026	1153,048	0,038150	22,270000	51,265000
2,556634	229,824265	1161,468	0,021509	22,270000	51,265000
2,500649	190,140421	1169,883	0,004763	22,280000	51,295000
2,444652	149,978710	1178,292	-0,012186	22,270000	51,280000
2,388626	110,068082	1186,706	-0,029028	22,260000	51,295000
2,332688	71,709077	1195,116	-0,045215	22,270000	51,280000
2,276663	32,236976	1203,532	-0,061873	22,260000	51,255000
2,220676	-5,478701	1211,947	-0,077789	22,270000	51,265000
2,164612	-42,208559	1220,362	-0,093289	22,260000	51,265000
2,108615	-80,034157	1228,774	-0,109251	22,280000	51,295000
2,052634	-116,841538	1237,193	-0,124784	22,270000	51,280000
1,996640	-153,773882	1245,607	-0,140369	22,270000	51,280000
1,940691	-191,395836	1254,021	-0,156246	22,270000	51,305000
1,884624	-227,316906	1262,432	-0,171404	22,260000	51,280000
1,828701	-262,948710	1270,845	-0,186441	22,270000	51,265000
1,772679	-300,743067	1279,258	-0,202390	22,260000	51,295000
1,716664	-336,030065	1287,676	-0,217281	22,270000	51,255000
1,660660	-370,627453	1296,095	-0,231881	22,270000	51,255000
1,604707	-405,294265	1304,512	-0,246511	22,270000	51,280000
1,548671	-438,268291	1312,925	-0,260426	22,270000	51,280000
1,492676	-473,131804	1321,335	-0,275138	22,260000	51,255000
1,436723	-506,419394	1329,750	-0,289186	22,270000	51,295000
1,380652	-536,807381	1338,164	-0,302009	22,270000	51,295000
1,324731	-567,673236	1346,575	-0,315035	22,280000	51,265000
1,268673	-597,716417	1354,988	-0,327713	22,260000	51,255000
1,212759	-626,364179	1363,398	-0,339802	22,270000	51,305000
1,156742	-649,744983	1371,812	-0,349669	22,270000	51,295000
1,100688	-675,187676	1380,234	-0,360406	22,270000	51,265000
1,044691	-701,044598	1388,651	-0,371317	22,260000	51,280000
0,988750	-714,862263	1397,065	-0,377148	22,280000	51,295000
0,932714	-719,831855	1405,481	-0,379246	22,270000	51,280000
0,876677	-621,238383	1413,893	-0,337639	22,260000	51,295000
0,820700	0,226785	1422,312	-0,075381	22,280000	51,265000
0,764762	0,031241	1430,725	-0,075463	22,270000	51,255000
0,708703	0,148104	1439,144	-0,075414	22,270000	51,280000
0,658660	0,226785	1446,655	-0,075381	22,270000	51,255000