Folder: Nanoindentation_Analysis/Nanoindentation Datenauswertung/data/PDMS/14.09 (part 2)

File: APM-PDMS-150ms,4um,20nms,9cycles,1,5um offset,75%,5x1-7
Quasi static measurement routine
Tip parameters (shape,radius, material...)
14.09.2022

Piezo position[nm]	MEMS displ.[nm]	Time[ms]	Cap [pf]	Temp [°C]	Rh [%]
eoh

X-Pos [um]	Y-Pos [um]
0,000489	0,000898

POC
1,835990
0,420076	0,078680	5,266	-0,075642	22,280000	51,370000
0,507077	0,188602	9,625	-0,075596	22,270000	51,410000
0,594203	0,141162	13,983	-0,075616	22,280000	51,400000
0,681072	0,133062	18,340	-0,075619	22,270000	51,385000
0,768037	-0,195544	22,702	-0,075758	22,280000	51,410000
0,855019	-0,062481	27,062	-0,075702	22,270000	51,385000
0,942120	-0,101822	31,422	-0,075718	22,260000	51,400000
1,029059	-0,141162	35,783	-0,075735	22,270000	51,370000
1,116063	-0,078680	40,146	-0,075708	22,270000	51,410000
1,203087	-0,109921	44,506	-0,075722	22,280000	51,400000
1,290070	0,024298	48,864	-0,075665	22,270000	51,400000
1,377060	-0,124963	53,223	-0,075728	22,270000	51,400000
1,464095	-0,399187	57,580	-0,075844	22,260000	51,425000
1,551035	-0,494067	61,940	-0,075884	22,270000	51,410000
1,638093	-0,878212	66,298	-0,076046	22,270000	51,360000
1,725079	-0,705809	70,655	-0,075973	22,270000	51,370000
1,812015	0,627129	75,023	-0,075411	22,280000	51,410000
1,899017	-160,991651	79,380	-0,143614	22,270000	51,385000
1,985988	-108,885562	83,741	-0,121625	22,280000	51,400000
2,072995	-50,445701	88,099	-0,096963	22,270000	51,385000
2,115011	-25,786341	92,458	-0,086557	22,270000	51,425000
2,115017	-28,436019	96,819	-0,087675	22,270000	51,425000
2,097016	-43,688444	101,176	-0,094112	22,280000	51,385000
2,079003	-55,767041	105,420	-0,099209	22,270000	51,385000
2,165969	6,294431	109,782	-0,073019	22,270000	51,400000
2,252982	64,890495	114,144	-0,048292	22,280000	51,400000
2,340017	126,003175	118,501	-0,022502	22,260000	51,370000
2,394002	160,052114	122,858	-0,008133	22,280000	51,385000
2,393984	157,221934	127,219	-0,009328	22,280000	51,385000
2,387981	153,153695	131,579	-0,011044	22,260000	51,410000
2,301030	84,838289	135,940	-0,039874	22,270000	51,370000
2,294984	81,099813	140,183	-0,041451	22,270000	51,400000
2,382014	145,128295	144,544	-0,014431	22,270000	51,400000
2,468962	207,227951	148,900	0,011775	22,280000	51,400000
2,555990	268,373028	153,257	0,037578	22,270000	51,370000
2,642958	328,497575	157,619	0,062951	22,280000	51,400000
2,673004	348,202384	161,978	0,071266	22,270000	51,370000
2,672997	345,897512	166,341	0,070293	22,270000	51,385000
2,643013	322,140662	170,697	0,060268	22,260000	51,385000
2,556043	257,964075	175,053	0,033186	22,270000	51,410000
2,468950	191,317156	179,412	0,005061	22,280000	51,400000
2,540968	246,097221	183,662	0,028178	22,270000	51,370000
2,628001	310,705393	188,019	0,055442	22,270000	51,400000
2,715009	376,748325	192,378	0,083312	22,280000	51,385000
2,802012	436,723610	196,739	0,108622	22,270000	51,400000
2,888982	499,129887	201,099	0,134958	22,270000	51,385000
2,951891	545,343047	205,458	0,154459	22,270000	51,410000
2,951987	542,686426	209,818	0,153338	22,280000	51,400000
2,951956	541,785073	214,178	0,152958	22,270000	51,370000
2,867982	478,147678	218,536	0,126103	22,270000	51,410000
2,780961	412,372029	222,894	0,098346	22,260000	51,400000
2,693900	347,520873	227,247	0,070979	22,270000	51,410000
2,735982	378,072006	231,494	0,083871	22,280000	51,410000
2,822977	446,326089	235,854	0,112674	22,270000	51,385000
2,909954	509,758683	240,216	0,139443	22,270000	51,400000
2,996989	575,903436	244,578	0,167356	22,270000	51,410000
3,083928	637,407203	248,937	0,193311	22,270000	51,385000
3,170906	701,185760	253,295	0,220225	22,270000	51,385000
3,230888	745,979201	257,658	0,239128	22,260000	51,385000
3,230925	743,948552	262,013	0,238271	22,270000	51,400000
3,230905	743,009016	266,366	0,237875	22,270000	51,410000
3,143934	675,711826	270,720	0,209475	22,260000	51,400000
3,056961	609,386571	275,080	0,181486	22,270000	51,385000
2,969964	544,331772	279,439	0,154033	22,260000	51,370000
2,882912	479,339455	283,800	0,126606	22,270000	51,410000
2,966993	541,918135	288,042	0,153014	22,260000	51,400000
3,053941	610,053040	292,400	0,181767	22,270000	51,400000
3,140916	674,857912	296,759	0,209115	22,270000	51,370000
3,227922	738,847055	301,120	0,236118	22,270000	51,370000
3,314915	803,517708	305,481	0,263409	22,270000	51,385000
3,401875	867,757933	309,838	0,290519	22,260000	51,400000
3,488889	931,966917	314,195	0,317615	22,270000	51,370000
3,509849	946,953218	318,554	0,323939	22,260000	51,400000
3,509830	945,401594	322,914	0,323284	22,270000	51,370000
3,470863	913,437685	327,274	0,309795	22,280000	51,400000
3,383908	848,530991	331,629	0,282405	22,270000	51,385000
3,296976	781,814648	335,984	0,254250	22,280000	51,410000
3,209900	713,788507	340,344	0,225543	22,270000	51,385000
3,122924	648,364605	344,703	0,197935	22,280000	51,410000
3,140922	663,367104	348,958	0,204266	22,280000	51,385000
3,227881	731,910452	353,320	0,233191	22,270000	51,385000
3,314921	799,324506	357,679	0,261640	22,270000	51,400000
3,401922	865,132553	362,034	0,289411	22,270000	51,400000
3,488853	928,330263	366,394	0,316080	22,270000	51,410000
3,575836	993,158277	370,752	0,343438	22,280000	51,370000
3,662844	1058,651603	375,113	0,371076	22,270000	51,400000
3,749865	1125,109921	379,468	0,399121	22,280000	51,425000
3,788819	1152,315980	383,826	0,410602	22,270000	51,385000
3,788878	1150,096731	388,185	0,409666	22,270000	51,385000
3,767844	1132,916636	392,541	0,402416	22,270000	51,425000
3,680833	1065,627546	396,901	0,374020	22,280000	51,385000
3,593824	996,708151	401,259	0,344936	22,270000	51,410000
3,506827	932,358005	405,617	0,317780	22,280000	51,400000
3,419880	866,621695	409,976	0,290039	22,280000	51,370000
3,332904	801,613179	414,332	0,262605	22,280000	51,385000
3,350931	816,481459	418,590	0,268880	22,270000	51,400000
3,437862	882,140245	422,946	0,296588	22,270000	51,400000
3,524874	949,617937	427,302	0,325063	22,270000	51,385000
3,611863	1016,396762	431,656	0,353244	22,260000	51,385000
3,698851	1080,746908	436,016	0,380400	22,270000	51,400000
3,785825	1146,939101	440,372	0,408333	22,270000	51,410000
3,872823	1211,672236	444,733	0,435650	22,270000	51,410000
3,959883	1277,268541	449,088	0,463332	22,280000	51,410000
4,046800	1341,625629	453,449	0,490491	22,280000	51,360000
4,067792	1357,435760	457,805	0,497163	22,280000	51,370000
4,067784	1355,585614	462,166	0,496382	22,260000	51,410000
4,028753	1323,473600	466,522	0,482831	22,270000	51,410000
3,941851	1255,141995	470,882	0,453995	22,270000	51,370000
3,854789	1187,445618	475,242	0,425427	22,270000	51,410000
3,767794	1123,581439	479,594	0,398476	22,270000	51,385000
3,680804	1054,584521	483,952	0,369359	22,270000	51,370000
3,593841	988,799615	488,310	0,341598	22,280000	51,400000
3,509819	926,072830	492,673	0,315127	22,270000	51,385000
3,596838	996,653769	496,941	0,344913	22,260000	51,400000
3,683876	1062,452560	501,297	0,372680	22,280000	51,400000
3,770801	1129,138820	505,654	0,400821	22,270000	51,385000
3,857852	1195,988226	510,010	0,429032	22,270000	51,400000
3,944832	1261,435269	514,367	0,456650	22,270000	51,400000
4,031847	1327,016532	518,723	0,484326	22,280000	51,370000
4,118872	1392,118770	523,078	0,511799	22,280000	51,410000
4,205790	1460,347397	527,433	0,540591	22,280000	51,385000
4,292752	1524,047273	531,791	0,567473	22,270000	51,370000
4,346738	1564,749334	536,149	0,584649	22,270000	51,400000
4,346746	1562,946627	540,504	0,583888	22,280000	51,400000
[...]
4,098265	1363,886395	479,496	0,500278	22,270000	51,400000
4,011292	1298,055206	483,856	0,472498	22,270000	51,400000
3,924294	1231,808631	488,214	0,444542	22,260000	51,425000
3,840307	1165,553956	492,573	0,416582	22,270000	51,410000
3,927343	1233,877462	496,813	0,445415	22,280000	51,360000
4,014307	1304,655102	501,171	0,475283	22,260000	51,425000
4,101237	1371,747491	505,531	0,503596	22,270000	51,425000
4,188284	1436,309381	509,888	0,530841	22,270000	51,425000
4,275221	1505,393078	514,245	0,559994	22,270000	51,385000
4,362228	1571,623454	518,603	0,587943	22,280000	51,435000
4,449214	1638,355996	522,956	0,616104	22,270000	51,400000
4,536207	1701,804789	527,315	0,642880	22,260000	51,385000
4,623203	1767,675318	531,671	0,670677	22,280000	51,450000
4,677079	1810,329347	536,028	0,688677	22,280000	51,425000
4,677119	1808,447960	540,383	0,687883	22,270000	51,400000
4,671147	1802,921819	544,741	0,685551	22,260000	51,425000
4,584123	1735,625787	549,101	0,657152	22,270000	51,435000
4,497245	1664,566980	553,455	0,627166	22,280000	51,400000
4,410252	1597,944359	557,808	0,599051	22,280000	51,410000
4,323227	1531,422403	562,164	0,570979	22,260000	51,410000
4,236194	1462,143161	566,523	0,541743	22,270000	51,450000
4,149300	1395,308797	570,879	0,513539	22,260000	51,400000
4,062296	1331,209734	575,237	0,486489	22,270000	51,450000
3,975306	1262,925568	579,590	0,457673	22,260000	51,425000
3,888262	1197,830273	583,946	0,430203	22,280000	51,400000
3,801343	1132,187685	588,305	0,402501	22,270000	51,410000
3,714332	1066,701301	592,663	0,374866	22,270000	51,410000
3,627352	1003,284906	597,019	0,348104	22,270000	51,435000
3,540352	936,003916	601,376	0,319712	22,260000	51,400000
3,453397	872,218417	605,736	0,292794	22,260000	51,400000
3,366432	806,464751	610,095	0,265046	22,260000	51,400000
3,279453	742,099563	614,454	0,237884	22,270000	51,425000
3,192487	680,579597	618,811	0,211923	22,260000	51,385000
3,105406	616,629795	623,172	0,184936	22,280000	51,410000
3,018486	552,342130	627,528	0,157807	22,270000	51,425000
2,931476	488,768374	631,885	0,130979	22,260000	51,425000
2,844487	425,649345	636,246	0,104342	22,280000	51,435000
2,757522	362,428493	640,599	0,077663	22,270000	51,400000
2,670546	297,372538	644,958	0,050209	22,270000	51,400000
2,583507	235,382803	649,312	0,024050	22,260000	51,425000
2,496535	175,688685	653,671	-0,001141	22,270000	51,400000
2,409527	112,663378	658,025	-0,027738	22,260000	51,385000
2,322470	53,565147	662,385	-0,052677	22,270000	51,425000
2,235495	-7,117104	666,742	-0,078285	22,270000	51,435000
2,148520	-64,890495	671,101	-0,102666	22,260000	51,410000
2,061496	-125,093722	675,455	-0,128071	22,270000	51,425000
1,974575	-181,620955	679,814	-0,151926	22,260000	51,410000
1,887531	-240,751583	684,175	-0,176879	22,280000	51,425000
1,800535	-292,434186	688,536	-0,198689	22,270000	51,410000
1,713603	-349,589705	692,892	-0,222809	22,270000	51,425000
1,626569	-407,958984	697,251	-0,247440	22,270000	51,410000
1,539557	-460,104414	701,607	-0,269446	22,270000	51,370000
1,452573	-510,886821	705,965	-0,290876	22,270000	51,425000
1,365572	-560,242567	710,326	-0,311704	22,260000	51,410000
1,278550	-608,414636	714,687	-0,332033	22,270000	51,435000
1,191549	-651,037424	719,045	-0,350020	22,260000	51,410000
1,104594	-689,145346	723,403	-0,366101	22,280000	51,400000
1,017608	-712,879054	727,759	-0,376117	22,270000	51,400000
0,930539	-728,303882	732,118	-0,382626	22,270000	51,425000
0,843570	-0,006942	736,473	-0,075285	22,270000	51,400000
0,756591	0,259182	740,829	-0,075172	22,270000	51,410000
0,669551	0,259182	745,193	-0,075172	22,270000	51,400000
0,666566	0,525307	745,343	-0,075060	22,270000	51,400000