Folder: Nanoindentation_Analysis/Nanoindentation Datenauswertung/data (part 4)

File: Drift-2, pressure off, chuck not activated
Drift test with MEMS displacement of 0,5 um, displacement data in [nm] and time increments of 30s
17.08.2022 16:24:45
eoh
0,046725	0,000000	22,440000	55,530000
127,232310	4,500000	22,430000	55,515000
127,034895	9,000000	22,430000	55,490000
127,089797	13,500000	22,430000	55,420000
126,219535	18,000000	22,430000	55,435000
126,892382	22,500000	22,430000	55,435000
128,221722	27,000000	22,430000	55,395000
128,024307	31,500000	22,430000	55,405000
128,783596	36,000000	22,430000	55,380000
127,620131	40,500000	22,430000	55,355000
127,951882	45,000000	22,430000	55,310000
128,997365	49,500000	22,430000	55,340000
129,068621	54,000000	22,430000	55,310000
129,733291	58,500000	22,420000	55,310000
129,463451	63,000000	22,420000	55,300000
130,366421	67,500000	22,430000	55,300000
130,001962	72,000000	22,420000	55,285000
130,341890	76,500000	22,430000	55,270000
129,914352	81,000000	22,430000	55,230000
131,901353	85,500000	22,420000	55,245000
132,391971	90,000000	22,420000	55,220000
132,874411	94,500000	22,420000	55,230000
132,637279	99,000000	22,420000	55,205000
132,019335	103,500000	22,420000	55,190000
132,676996	108,000000	22,420000	55,165000
133,025101	112,500000	22,420000	55,190000
133,096357	117,000000	22,420000	55,165000
133,761027	121,500000	22,430000	55,150000
133,547258	126,000000	22,430000	55,150000
133,989982	130,500000	22,420000	55,125000
134,346264	135,000000	22,420000	55,125000
133,807753	139,500000	22,410000	55,110000
135,264419	144,000000	22,420000	55,095000
134,394157	148,500000	22,410000	55,110000
135,398755	153,000000	22,420000	55,110000
136,348451	157,500000	22,420000	55,135000
135,841479	162,000000	22,420000	55,135000
136,648662	166,500000	22,420000	55,150000
136,688378	171,000000	22,410000	55,110000
136,973404	175,500000	22,420000	55,135000
137,353048	180,000000	22,430000	55,150000
137,724516	184,500000	22,420000	55,135000
137,061014	189,000000	22,420000	55,150000
137,273615	193,500000	22,420000	55,150000
137,202359	198,000000	22,420000	55,190000
137,510747	202,500000	22,420000	55,190000
137,598357	207,000000	22,410000	55,205000
138,738459	211,500000	22,420000	55,220000
138,627486	216,000000	22,420000	55,220000
139,497748	220,500000	22,420000	55,260000
138,778175	225,000000	22,420000	55,270000
138,667202	229,500000	22,400000	55,265000
139,711517	234,000000	22,420000	55,285000
140,273391	238,500000	22,420000	55,285000
140,502346	243,000000	22,410000	55,285000
140,368010	247,500000	22,420000	55,285000
140,082984	252,000000	22,430000	55,325000
140,154241	256,500000	22,420000	55,325000
141,167016	261,000000	22,410000	55,325000
141,412324	265,500000	22,420000	55,355000
141,190378	270,000000	22,420000	55,365000
140,074807	274,500000	22,420000	55,405000
141,040857	279,000000	22,420000	55,380000
140,676398	283,500000	22,420000	55,435000
140,589956	288,000000	22,420000	55,405000
142,370197	292,500000	22,420000	55,450000
140,368010	297,000000	22,430000	55,460000
141,088750	301,500000	22,430000	55,460000
141,341068	306,000000	22,420000	55,460000
141,554837	310,500000	22,420000	55,475000
140,795548	315,000000	22,420000	55,505000
139,227908	319,500000	22,420000	55,515000
140,114524	324,000000	22,430000	55,545000
140,359833	328,500000	22,420000	55,545000
139,814313	333,000000	22,420000	55,570000
140,082984	337,500000	22,420000	55,555000
140,091161	342,000000	22,420000	55,585000
139,686986	346,500000	22,420000	55,610000
140,273391	351,000000	22,420000	55,665000
141,095759	355,500000	22,420000	55,650000
140,827088	360,000000	22,430000	55,650000
140,273391	364,500000	22,430000	55,680000
141,095759	369,000000	22,430000	55,690000
140,462629	373,500000	22,420000	55,705000
141,531474	378,000000	22,420000	55,720000
141,269812	382,500000	22,420000	55,735000
140,210311	387,000000	22,430000	55,750000
139,679977	391,500000	22,420000	55,775000
139,441677	396,000000	22,420000	55,785000
139,292156	400,500000	22,420000	55,785000
138,927697	405,000000	22,420000	55,815000
138,998953	409,500000	22,420000	55,815000
139,505925	414,000000	22,420000	55,825000
138,674211	418,500000	22,420000	55,840000
139,315518	423,000000	22,420000	55,870000
138,571415	427,500000	22,430000	55,885000
140,137887	432,000000	22,420000	55,870000
140,391373	436,500000	22,420000	55,925000
140,137887	441,000000	22,420000	55,935000
138,761822	445,500000	22,430000	55,925000
138,738459	450,000000	22,430000	55,935000
138,152054	454,500000	22,420000	55,965000
138,097152	459,000000	22,430000	55,965000
138,587769	463,500000	22,430000	55,975000
139,410138	468,000000	22,430000	55,990000
138,365823	472,500000	22,430000	55,990000
138,382177	477,000000	22,420000	55,990000
138,160231	481,500000	22,430000	56,005000
138,105329	486,000000	22,420000	56,045000
137,764233	490,500000	22,420000	56,070000
137,724516	495,000000	22,420000	56,030000
136,839068	499,500000	22,420000	56,060000
137,258429	504,000000	22,420000	56,085000
137,669613	508,500000	22,430000	56,085000
137,510747	513,000000	22,430000	56,070000
137,250252	517,500000	22,420000	56,125000
137,036483	522,000000	22,420000	56,140000
137,455844	526,500000	22,430000	56,140000
137,124094	531,000000	22,420000	56,110000
136,696555	535,500000	22,420000	56,110000
136,008523	540,000000	22,430000	56,180000
135,698966	544,500000	22,430000	56,180000
135,098544	549,000000	22,420000	56,195000
135,406932	553,500000	22,430000	56,180000
134,734085	558,000000	22,430000	56,195000
134,836881	562,500000	22,430000	56,210000
135,074013	567,000000	22,420000	56,210000
135,485197	571,500000	22,420000	56,210000
134,543679	576,000000	488,930000	0,000000
135,176809	580,500000	488,930000	0,000000
135,105553	585,000000	1,230000	163,915000
134,132495	589,500000	1,230000	163,915000
134,512139	594,000000	1,230000	163,915000
133,522727	598,500000	1,230000	163,915000
133,230693	603,000000	1,230000	163,915000
133,071826	607,500000	1,230000	163,915000
133,341666	612,000000	1,230000	163,915000
132,945668	616,500000	1,230000	163,915000
133,056641	621,000000	1,230000	163,915000
133,199153	625,500000	1,230000	163,915000
131,964433	630,000000	1,230000	163,915000
133,262233	634,500000	5,550000	0,115000
132,106945	639,000000	5,560000	0,115000
132,257635	643,500000	363,710000	156,715000
132,676996	648,000000	5,350000	8,745000
131,608151	652,500000	5,350000	8,745000
131,584788	657,000000	5,350000	8,745000
131,703938	661,500000	5,350000	8,745000
131,949247	666,000000	5,350000	8,745000
131,758840	670,500000	5,350000	8,745000
130,580190	675,000000	5,350000	8,745000
130,666632	679,500000	5,350000	8,745000
130,746066	684,000000	5,350000	8,745000
131,101179	688,500000	5,350000	8,745000
131,481992	693,000000	2,460000	288,240000
132,043866	697,500000	0,000000	4,020000
131,528717	702,000000	315,210000	19,745000
131,624505	706,500000	315,210000	19,745000
131,410736	711,000000	315,210000	19,745000
130,341890	715,500000	315,210000	19,745000
131,125710	720,000000	315,210000	19,745000
130,674809	724,500000	315,210000	19,745000
130,445855	729,000000	315,210000	19,745000
130,199378	733,500000	315,210000	19,745000
130,524120	738,000000	315,210000	19,745000
129,867627	742,500000	315,210000	19,745000
129,060444	747,000000	0,000000	0,000000
129,171417	751,500000	327,830000	181,855000
129,914352	756,000000	0,000000	227,955000
128,632906	760,500000	19,700000	1,230000
129,028904	765,000000	19,700000	1,230000
129,899166	769,500000	19,700000	1,230000
129,068621	774,000000	19,700000	1,230000
129,139877	778,500000	19,700000	1,230000
128,047669	783,000000	19,700000	1,230000
127,477618	787,500000	19,700000	1,230000
128,332695	792,000000	19,700000	1,230000
127,905157	796,500000	19,700000	1,230000
126,693799	801,000000	19,700000	1,230000
126,947284	805,500000	1,220000	0,725000
127,366645	810,000000	2,130000	9,850000
127,540698	814,500000	2,130000	9,850000
126,797763	819,000000	576,480000	213,720000
125,791997	823,500000	576,480000	213,720000
126,473021	828,000000	576,480000	213,720000
125,823537	832,500000	576,480000	213,720000
125,737094	837,000000	576,480000	213,720000
126,022120	841,500000	576,480000	213,720000
125,072424	846,000000	576,480000	213,720000
126,196172	850,500000	576,480000	213,720000
126,259252	855,000000	576,480000	213,720000
125,894793	859,500000	576,480000	213,720000
125,674015	864,000000	75,470000	20,560000
124,976637	868,500000	0,000000	227,955000
125,783820	873,000000	576,480000	213,720000
125,420529	877,500000	576,480000	213,720000
125,855076	882,000000	576,480000	213,720000
124,827116	886,500000	576,480000	213,720000
124,668249	891,000000	576,480000	213,720000
124,882018	895,500000	576,480000	213,720000
124,059650	900,000000	576,480000	213,720000
123,925314	904,500000	576,480000	213,720000
123,814341	909,000000	576,480000	213,720000
122,279409	913,500000	576,480000	213,720000
121,709358	918,000000	576,480000	213,720000
123,766447	922,500000	5,550000	0,115000
124,351684	927,000000	5,550000	0,115000
122,856469	931,500000	2,640000	2,775000
122,634523	936,000000	2,640000	2,775000
121,962844	940,500000	2,640000	2,775000
122,730310	945,000000	2,640000	2,775000
122,793389	949,500000	2,640000	2,775000
121,906773	954,000000	2,640000	2,775000
120,870636	958,500000	2,640000	2,775000
121,638102	963,000000	2,640000	2,775000
121,250280	966,500000	2,640000	2,775000

File: EM-PDMS-50-10-50-0,7um
Quasi static measurement routine
Tip parameters (shape,radius, material...)
12.08.2022

Piezo position[nm]	MEMS displ.[nm]	Time[ms]	Cap [pf]	Temp [°C]	Rh [%]
eoh
2,050070	-0,195552	0,181	-0,106400	22,350000	47,360000
2,059114	0,389905	0,836	-0,106162	22,350000	47,360000
2,068337	0,000000	1,489	-0,106320	22,340000	47,335000
2,077408	0,129568	2,153	-0,106268	22,340000	47,335000
2,086456	-0,650242	2,810	-0,106585	22,340000	47,335000
2,095618	-0,455889	3,464	-0,106506	22,340000	47,335000
2,104670	0,129568	4,119	-0,106268	22,340000	47,335000
2,113748	0,194353	4,772	-0,106241	22,340000	47,335000
2,122890	0,260337	5,426	-0,106214	22,350000	47,335000
2,131971	0,129568	6,080	-0,106268	22,350000	47,335000
2,141112	0,129568	6,731	-0,106268	22,350000	47,335000
2,150229	-0,064784	7,383	-0,106347	22,350000	47,335000
2,159276	0,000000	8,036	-0,106320	22,350000	47,335000
2,168395	-0,195552	8,690	-0,106400	22,350000	47,335000
2,177467	0,454689	9,344	-0,106135	22,350000	47,335000
2,186543	0,000000	9,999	-0,106320	22,350000	47,350000
2,195676	-0,585458	10,656	-0,106559	22,350000	47,350000
2,204831	-0,129568	11,311	-0,106373	22,350000	47,350000
2,213863	0,000000	11,962	-0,106320	22,350000	47,350000
2,222946	0,129568	12,616	-0,106268	22,350000	47,350000
2,232064	-1,950726	13,278	-0,107114	22,350000	47,350000
2,241157	0,325121	13,931	-0,106188	22,340000	47,350000
2,250294	2,665752	14,587	-0,105235	22,340000	47,350000
2,259363	4,356141	15,240	-0,104547	22,340000	47,350000
2,268462	7,736918	15,896	-0,103171	22,340000	47,320000
2,277604	10,532239	16,548	-0,102034	22,340000	47,320000
2,286657	13,458327	17,199	-0,100843	22,340000	47,320000
2,295768	17,814468	17,858	-0,099070	22,340000	47,335000
2,304902	20,284667	18,520	-0,098064	22,340000	47,335000
2,314021	23,599461	19,172	-0,096715	22,340000	47,335000
2,323095	26,331196	19,832	-0,095604	22,350000	47,360000
2,332232	29,320869	20,494	-0,094387	22,350000	47,360000
2,341250	32,572078	21,150	-0,093063	22,350000	47,360000
2,350408	35,302614	21,804	-0,091952	22,340000	47,320000
2,359476	37,513677	22,459	-0,091052	22,340000	47,320000
2,368565	39,529187	23,116	-0,090232	22,340000	47,320000
2,377688	40,634118	23,789	-0,089782	22,340000	47,335000
2,386768	42,324507	24,441	-0,089094	22,340000	47,335000
2,395976	45,055043	25,103	-0,087983	22,340000	47,335000
2,404989	47,070552	25,754	-0,087163	22,340000	47,350000
2,414032	49,411183	26,414	-0,086210	22,340000	47,350000
2,423160	53,311435	27,088	-0,084623	22,340000	47,350000
2,432316	56,367092	27,746	-0,083379	22,340000	47,320000
2,441412	60,072990	28,399	-0,081871	22,340000	47,320000
2,450511	63,453768	29,083	-0,080495	22,340000	47,320000
2,459587	66,704977	29,752	-0,079171	22,340000	47,360000
2,468738	71,190686	30,404	-0,077346	22,340000	47,360000
2,477830	74,702232	31,054	-0,075917	22,340000	47,360000
2,486858	77,887458	31,709	-0,074620	22,340000	47,360000
2,495985	82,893840	32,399	-0,072583	22,340000	47,360000
2,505111	85,493608	33,054	-0,071524	22,340000	47,360000
2,514134	89,330275	34,001	-0,069963	22,340000	47,360000
2,523286	92,711053	34,665	-0,068587	22,340000	47,360000
2,532410	97,521883	35,318	-0,066629	22,340000	47,360000
2,541475	101,747255	35,991	-0,064909	22,350000	47,335000
2,550565	105,388370	36,667	-0,063427	22,350000	47,335000
2,559678	109,679726	37,320	-0,061681	22,350000	47,335000
2,568766	113,905098	37,979	-0,059961	22,350000	47,335000
2,577858	118,066886	38,636	-0,058267	22,350000	47,335000
2,587005	122,487811	39,316	-0,056468	22,350000	47,335000
2,596114	125,478684	39,972	-0,055250	22,340000	47,335000
2,605171	129,378935	40,640	-0,053663	22,340000	47,335000
2,614315	134,320533	41,302	-0,051652	22,340000	47,335000
2,623385	138,286769	41,955	-0,050038	22,340000	47,335000
2,632470	141,471994	42,620	-0,048741	22,340000	47,335000
2,641545	146,218040	43,279	-0,046810	22,340000	47,335000
2,650655	150,119491	43,952	-0,045222	22,340000	47,335000
2,659815	153,565053	44,612	-0,043819	22,340000	47,335000
2,668862	157,790425	45,270	-0,042100	22,340000	47,335000
2,677951	161,625893	45,934	-0,040539	22,350000	47,335000
2,687056	164,747533	46,599	-0,039268	22,350000	47,335000
2,696169	169,298027	47,259	-0,037416	22,350000	47,335000
2,705257	173,133494	47,914	-0,035855	22,340000	47,350000
2,714348	177,555618	48,577	-0,034055	22,340000	47,350000
2,723475	181,716207	49,244	-0,032362	22,340000	47,350000
2,732574	185,486890	49,912	-0,030827	22,340000	47,335000
2,741649	188,932452	50,592	-0,029425	22,340000	47,335000
2,750092	192,833903	51,245	-0,027837	22,340000	47,335000
2,750045	191,403851	51,902	-0,028419	22,340000	47,335000
2,750041	189,843030	52,582	-0,029054	22,340000	47,335000
2,750058	189,843030	53,240	-0,029054	22,340000	47,335000
2,750013	189,517909	53,892	-0,029187	22,340000	47,350000
2,749999	189,972599	54,559	-0,029001	22,340000	47,350000
2,750049	189,388341	55,213	-0,029239	22,340000	47,350000
2,750090	188,738099	55,921	-0,029504	22,350000	47,350000
2,750095	187,892305	56,585	-0,029848	22,350000	47,350000
2,750042	187,372831	57,252	-0,030060	22,350000	47,350000
2,750033	187,697952	57,928	-0,029927	22,350000	47,350000
2,750120	186,852158	58,602	-0,030271	22,350000	47,350000
2,750020	187,502399	59,260	-0,030007	22,350000	47,350000
2,750071	186,722589	59,928	-0,030324	22,350000	47,335000
2,750042	186,527037	60,601	-0,030404	22,350000	47,335000
2,750053	186,656605	61,270	-0,030351	22,350000	47,335000
2,743789	182,106112	61,924	-0,032203	22,340000	47,350000
2,734680	177,945524	62,589	-0,033896	22,340000	47,350000
2,725557	172,874357	63,252	-0,035960	22,340000	47,350000
2,716492	168,647785	63,916	-0,037681	22,340000	47,350000
2,707380	163,447050	64,583	-0,039797	22,340000	47,350000
2,698255	158,961341	65,238	-0,041623	22,340000	47,350000
2,689227	154,995105	65,929	-0,043237	22,340000	47,350000
2,680051	150,313844	66,603	-0,045143	22,340000	47,350000
2,671032	145,828135	67,257	-0,046968	22,340000	47,350000
2,661878	140,106726	67,929	-0,049297	22,340000	47,350000
2,652776	135,815370	68,588	-0,051043	22,340000	47,350000
2,643695	131,719566	69,256	-0,052710	22,340000	47,350000
2,634638	127,623762	69,926	-0,054377	22,350000	47,335000
2,625463	124,048631	70,582	-0,055833	22,350000	47,335000
2,616327	117,937318	71,235	-0,058320	22,350000	47,335000
2,607272	114,490556	71,915	-0,059723	22,340000	47,335000
2,598200	110,200399	72,580	-0,061469	22,340000	47,335000
2,589093	105,713490	73,240	-0,063295	22,340000	47,335000
2,579950	102,073576	73,917	-0,064776	22,340000	47,320000
2,570913	97,131978	74,585	-0,066788	22,340000	47,320000
2,561778	93,100958	75,246	-0,068428	22,340000	47,320000
2,552717	88,419696	75,919	-0,070333	22,350000	47,320000
2,543589	83,869203	76,590	-0,072186	22,350000	47,320000
2,534494	78,602484	77,258	-0,074329	22,350000	47,320000
2,525337	74,702232	77,943	-0,075917	22,350000	47,320000
2,516276	70,605229	78,618	-0,077584	22,350000	47,320000
2,507163	67,355219	79,283	-0,078907	22,350000	47,320000
2,498075	62,478405	79,952	-0,080892	22,340000	47,335000
2,488971	58,513370	80,631	-0,082505	22,340000	47,335000
2,479931	54,351582	81,287	-0,084199	22,340000	47,335000
2,470804	49,801088	81,969	-0,086051	22,340000	47,320000
2,461701	45,900837	82,644	-0,087639	22,340000	47,320000
2,452585	41,934602	83,299	-0,089253	22,340000	47,320000
2,443534	38,163919	83,979	-0,090788	22,350000	47,360000
2,434323	34,327252	84,640	-0,092349	22,350000	47,360000
2,425264	30,816905	85,293	-0,093778	22,350000	47,360000
2,416142	27,306559	85,961	-0,095207	22,350000	47,360000
2,407069	24,574823	86,643	-0,096318	22,350000	47,360000
2,397964	20,934909	87,294	-0,097800	22,350000	47,360000
2,388830	18,529494	87,947	-0,098779	22,340000	47,310000
2,379739	15,863742	88,636	-0,099864	22,340000	47,310000
2,370723	13,262774	89,304	-0,100922	22,340000	47,310000
2,361626	10,922144	89,992	-0,101875	22,340000	47,320000
2,352481	8,777065	90,660	-0,102748	22,340000	47,320000
2,343392	7,931271	91,319	-0,103092	22,340000	47,320000
2,334300	6,305666	91,983	-0,103754	22,340000	47,335000
2,325195	4,420925	92,685	-0,104521	22,340000	47,335000
2,316087	3,185225	93,353	-0,105024	22,340000	47,335000
2,307011	1,300484	94,030	-0,105791	22,340000	47,335000
2,297920	-1,170915	94,746	-0,106797	22,340000	47,335000
2,288771	-3,055657	95,421	-0,107564	22,340000	47,335000
2,279706	-4,291356	96,100	-0,108067	22,340000	47,295000
2,270642	-7,021892	96,778	-0,109178	22,340000	47,295000
2,261446	-8,777065	97,441	-0,109893	22,340000	47,335000
2,252391	-10,532239	98,100	-0,110607	22,340000	47,335000
2,243245	-12,222627	98,785	-0,111295	22,340000	47,335000
2,234141	-12,482964	99,462	-0,111401	22,340000	47,350000
2,225109	-13,977801	100,146	-0,112009	22,340000	47,350000
2,215964	-14,563258	100,800	-0,112248	22,340000	47,350000
2,206897	-15,278284	101,487	-0,112539	22,340000	47,350000
2,197763	-16,839105	102,173	-0,113174	22,340000	47,350000
2,188653	-17,099441	102,840	-0,113280	22,340000	47,350000
2,179569	-17,944036	103,504	-0,113624	22,340000	47,350000
2,170514	-0,129568	104,180	-0,106373	22,340000	47,350000
2,161394	-0,260337	104,853	-0,106426	22,340000	47,350000
2,152217	-0,779810	105,510	-0,106638	22,350000	47,310000
2,143220	-0,064784	106,205	-0,106347	22,350000	47,310000
2,134087	0,520673	106,879	-0,106108	22,350000	47,310000
2,124975	-0,195552	107,550	-0,106400	22,340000	47,350000
2,115862	0,064784	108,230	-0,106294	22,340000	47,350000
2,106847	-0,129568	108,904	-0,106373	22,340000	47,350000
2,097729	-0,520673	109,590	-0,106532	22,340000	47,350000
2,088552	0,000000	110,263	-0,106320	22,340000	47,350000
2,079539	0,129568	110,957	-0,106268	22,340000	47,350000
2,070355	0,389905	111,611	-0,106162	22,340000	47,350000
2,061286	-0,064784	112,265	-0,106347	22,340000	47,350000
2,052203	-0,195552	112,950	-0,106400	22,340000	47,350000
2,050077	-0,129568	113,101	-0,106373	22,340000	47,350000