Folder: Nanoindentation_Analysis/Nanoindentation Datenauswertung/data (part 2)

File: AR-SA-300-1-300-2um-diff_LF-4x4-3
Quasi static measurement routine
Tip parameters (shape,radius, material...)
02.09.2022

Piezo position[nm]	MEMS displ.[nm]	Time[ms]	Cap [pf]	Temp [°C]	Rh [%]
eoh

X-Pos [um]	Y-Pos [um]
0,000305	0,000943

POC
1,916036
1,422075	-0,049073	1,069	-0,134200	22,510000	46,345000
1,429120	-0,115323	2,123	-0,134227	22,510000	46,385000
1,436113	-0,066249	3,174	-0,134207	22,510000	46,385000
1,443133	0,092013	4,226	-0,134144	22,500000	46,330000
1,450106	0,116550	5,278	-0,134134	22,500000	46,330000
1,457069	0,033125	6,328	-0,134167	22,500000	46,370000
1,464114	0,208562	7,379	-0,134098	22,500000	46,370000
1,471073	-0,074837	8,430	-0,134210	22,500000	46,370000
1,478076	0,116550	9,484	-0,134134	22,500000	46,370000
1,485068	0,349649	10,538	-0,134042	22,510000	46,345000
1,492037	0,008588	11,589	-0,134177	22,500000	46,355000
1,499063	0,000000	12,644	-0,134181	22,500000	46,355000
1,506032	-0,157035	13,696	-0,134243	22,500000	46,355000
1,513069	0,092013	14,749	-0,134144	22,500000	46,355000
1,520050	0,041712	15,799	-0,134164	22,500000	46,355000
1,527025	-0,190160	16,850	-0,134256	22,500000	46,355000
1,534108	-0,231872	17,901	-0,134273	22,520000	46,385000
1,541029	-0,315297	18,953	-0,134306	22,520000	46,385000
1,548065	0,041712	20,007	-0,134164	22,510000	46,345000
1,555060	0,100601	21,059	-0,134141	22,510000	46,345000
1,562067	0,092013	22,112	-0,134144	22,510000	46,345000
1,569020	0,116550	23,164	-0,134134	22,510000	46,345000
1,576042	-0,224511	24,216	-0,134270	22,510000	46,400000
1,583040	0,008588	25,266	-0,134177	22,510000	46,400000
1,590021	-0,015949	26,317	-0,134187	22,510000	46,335000
1,597056	-0,231872	27,368	-0,134273	22,510000	46,335000
1,604031	-0,141086	28,418	-0,134237	22,510000	46,345000
1,611043	-0,174211	29,469	-0,134250	22,510000	46,345000
1,618065	0,067476	30,520	-0,134154	22,510000	46,345000
1,624912	0,274812	31,570	-0,134071	22,510000	46,345000
1,632053	0,241687	32,621	-0,134084	22,510000	46,360000
1,639083	0,092013	33,674	-0,134144	22,510000	46,360000
1,646027	-0,083425	34,729	-0,134214	22,510000	46,360000
1,653049	-0,066249	35,783	-0,134207	22,500000	46,380000
1,660059	-0,074837	36,834	-0,134210	22,500000	46,380000
1,667051	-0,182799	37,886	-0,134253	22,510000	46,360000
1,673991	-0,107962	38,939	-0,134224	22,510000	46,360000
1,681024	-0,107962	39,990	-0,134224	22,510000	46,360000
1,688058	0,215923	41,044	-0,134095	22,510000	46,360000
1,695032	0,257636	42,095	-0,134078	22,510000	46,360000
1,702045	0,083425	43,150	-0,134147	22,510000	46,360000
1,709007	-0,083425	44,203	-0,134214	22,510000	46,375000
1,716066	-0,024537	45,257	-0,134190	22,510000	46,375000
1,723095	-0,024537	46,308	-0,134190	22,510000	46,375000
1,730051	-0,057661	47,362	-0,134204	22,510000	46,375000
1,737055	-0,099374	48,413	-0,134220	22,520000	46,345000
1,744046	0,092013	49,466	-0,134144	22,520000	46,345000
1,751033	-0,423259	50,519	-0,134349	22,500000	46,330000
1,758035	0,074837	51,571	-0,134151	22,500000	46,330000
1,765028	-0,224511	52,623	-0,134270	22,500000	46,330000
1,772016	-0,049073	53,675	-0,134200	22,500000	46,330000
1,779000	0,067476	54,728	-0,134154	22,500000	46,330000
1,786071	-0,115323	55,780	-0,134227	22,500000	46,330000
1,793068	0,141086	56,832	-0,134125	22,500000	46,330000
1,800149	-0,024537	57,885	-0,134190	22,500000	46,355000
1,807107	0,050300	58,937	-0,134161	22,500000	46,355000
1,814095	-0,249048	59,989	-0,134280	22,510000	46,345000
1,821073	-0,107962	61,039	-0,134224	22,510000	46,345000
1,828009	-0,033125	62,091	-0,134194	22,510000	46,345000
1,834991	0,008588	63,142	-0,134177	22,510000	46,345000
1,842012	0,116550	64,192	-0,134134	22,510000	46,375000
1,849023	-0,074837	65,242	-0,134210	22,510000	46,375000
1,856049	0,008588	66,294	-0,134177	22,510000	46,375000
1,863018	0,017176	67,345	-0,134174	22,510000	46,375000
1,869961	-0,123911	68,397	-0,134230	22,510000	46,345000
1,877059	-0,198748	69,448	-0,134260	22,510000	46,345000
1,884037	-24,823826	70,500	-0,144061	22,510000	46,345000
1,891019	-18,490892	71,555	-0,141540	22,510000	46,345000
1,898044	-12,274507	72,605	-0,139066	22,500000	46,340000
1,904971	-5,309752	73,657	-0,136294	22,510000	46,345000
1,912005	1,021955	74,709	-0,133774	22,510000	46,345000
1,918996	9,092091	75,761	-0,130562	22,510000	46,360000
1,926017	15,557524	76,812	-0,127989	22,510000	46,360000
1,932991	21,899046	77,862	-0,125465	22,510000	46,360000
1,940025	29,868581	78,914	-0,122293	22,510000	46,360000
1,946999	36,683662	79,968	-0,119581	22,510000	46,375000
1,953984	43,688904	81,019	-0,116792	22,510000	46,375000
1,961034	49,682004	82,071	-0,114407	22,500000	46,315000
1,968061	57,552165	83,121	-0,111275	22,500000	46,315000
1,975044	63,892460	84,174	-0,108751	22,520000	46,335000
1,982062	71,155337	85,227	-0,105861	22,520000	46,335000
1,989031	78,701614	86,282	-0,102857	22,500000	46,355000
1,996013	85,640605	87,333	-0,100096	22,500000	46,355000
2,003027	91,517156	88,383	-0,097757	22,510000	46,345000
2,010075	98,173975	89,437	-0,095107	22,510000	46,345000
2,010036	99,121094	90,490	-0,094730	22,510000	46,335000
2,003003	92,979546	91,545	-0,097175	22,510000	46,335000
1,996021	84,876286	92,597	-0,100400	22,510000	46,335000
1,989059	78,734738	93,649	-0,102844	22,510000	46,345000
1,982058	71,222813	94,702	-0,105834	22,510000	46,345000
1,975038	63,701074	95,754	-0,108828	22,510000	46,320000
1,968039	57,409852	96,804	-0,111332	22,510000	46,320000
1,961020	49,282055	97,857	-0,114566	22,490000	46,340000
1,954011	43,531868	98,909	-0,116855	22,490000	46,340000
1,947027	35,844506	99,962	-0,119915	22,510000	46,375000
1,940039	27,932632	101,015	-0,123063	22,510000	46,375000
1,932983	21,998420	102,068	-0,125425	22,510000	46,375000
1,926027	14,768668	103,119	-0,128303	22,510000	46,375000
1,919043	6,682583	104,171	-0,131521	22,520000	46,320000
1,911982	0,041712	105,225	-0,134164	22,520000	46,320000
1,905090	-6,606519	106,277	-0,136810	22,510000	46,375000
1,897989	-14,335594	107,329	-0,139886	22,510000	46,375000
1,891083	-20,343416	108,380	-0,142277	22,510000	46,345000
1,884063	-27,873744	109,435	-0,145274	22,510000	46,345000
1,877008	-35,169745	110,490	-0,148178	22,510000	46,345000
1,870047	-42,475561	111,542	-0,151086	22,510000	46,345000
1,863024	-48,683358	112,595	-0,153557	22,510000	46,345000
1,856090	-55,813737	113,649	-0,156395	22,500000	46,355000
1,849022	-63,102377	114,701	-0,159295	22,500000	46,355000
1,841992	-70,424142	115,754	-0,162209	22,500000	46,355000
1,835011	-77,197511	116,805	-0,164905	22,500000	46,355000
1,828051	-83,604055	117,857	-0,167455	22,500000	46,330000
1,821078	-90,850983	118,907	-0,170339	22,500000	46,330000
1,814076	-97,399841	119,960	-0,172946	22,500000	46,370000
1,807042	-104,996418	121,012	-0,175969	22,500000	46,370000
1,800050	-112,408969	122,065	-0,178919	22,510000	46,375000
1,793082	-119,406849	123,116	-0,181705	22,510000	46,375000
1,786031	-126,445214	124,167	-0,184506	22,510000	46,345000
1,779093	-132,927823	125,218	-0,187086	22,510000	46,345000
1,772068	-141,213882	126,269	-0,190384	22,510000	46,375000
1,765010	-148,170049	127,319	-0,193152	22,510000	46,375000
1,758013	-154,717680	128,370	-0,195758	22,500000	46,355000
1,751024	-161,790397	129,421	-0,198573	22,500000	46,355000
1,744062	-169,902246	130,473	-0,201802	22,510000	46,360000
1,737004	-176,151755	131,527	-0,204289	22,510000	46,360000
1,730054	-183,033085	132,579	-0,207028	22,510000	46,335000
[...]
2,679782	907,777412	390,595	0,227025	22,500000	46,300000
2,656801	884,565651	394,050	0,217787	22,510000	46,255000
2,633719	860,639869	397,507	0,208265	22,510000	46,280000
2,610759	838,201015	400,967	0,199334	22,500000	46,265000
2,587762	814,083847	404,423	0,189735	22,490000	46,275000
2,564760	792,433849	407,881	0,181119	22,510000	46,295000
2,541777	769,265026	411,338	0,171897	22,500000	46,290000
2,518728	746,169814	414,794	0,162706	22,510000	46,335000
2,495734	722,625579	418,248	0,153335	22,500000	46,250000
2,472752	700,277511	421,705	0,144440	22,510000	46,280000
2,449748	677,265723	425,164	0,135282	22,510000	46,280000
2,426772	653,996300	428,620	0,126021	22,510000	46,335000
2,403764	631,132960	432,073	0,116921	22,490000	46,315000
2,380748	607,066092	435,526	0,107342	22,510000	46,305000
2,357783	585,474982	438,983	0,098749	22,490000	46,300000
2,334733	562,038709	442,439	0,089421	22,500000	46,265000
2,311741	538,694449	445,893	0,080130	22,510000	46,280000
2,288723	515,649537	449,351	0,070958	22,500000	46,275000
2,265760	492,420599	452,807	0,061713	22,510000	46,335000
2,242718	469,833297	456,264	0,052724	22,500000	46,275000
2,219707	447,269306	459,720	0,043743	22,500000	46,240000
2,196733	424,050183	463,178	0,034502	22,510000	46,295000
2,173778	400,156299	466,634	0,024992	22,510000	46,305000
2,150783	377,210761	470,089	0,015860	22,490000	46,290000
2,127796	355,869926	473,545	0,007366	22,510000	46,280000
2,104715	332,640988	477,002	-0,001879	22,500000	46,300000
2,081767	309,629201	480,457	-0,011038	22,510000	46,280000
2,058749	286,185567	483,912	-0,020368	22,510000	46,295000
2,035767	263,630163	487,366	-0,029345	22,510000	46,270000
2,012697	241,182720	490,826	-0,038279	22,490000	46,300000
1,989718	217,955009	494,283	-0,047524	22,510000	46,305000
1,966747	194,543273	497,735	-0,056842	22,500000	46,290000
1,943774	172,038169	501,192	-0,065799	22,510000	46,320000
1,920779	149,940376	504,649	-0,074594	22,500000	46,265000
1,897757	126,263642	508,106	-0,084017	22,510000	46,305000
1,874725	104,331472	511,558	-0,092746	22,500000	46,290000
1,851781	82,158841	515,014	-0,101571	22,510000	46,305000
1,828774	59,097980	518,472	-0,110749	22,490000	46,265000
1,805788	35,927931	521,933	-0,119971	22,500000	46,275000
1,782802	13,139428	525,388	-0,129041	22,510000	46,295000
1,759804	-10,063746	528,842	-0,138275	22,510000	46,305000
1,736764	-32,577438	532,293	-0,147236	22,500000	46,275000
1,713804	-56,079960	535,752	-0,156590	22,510000	46,295000
1,690777	-79,939492	539,215	-0,166086	22,500000	46,300000
1,667773	-102,968456	542,670	-0,175251	22,500000	46,300000
1,644803	-127,301547	546,126	-0,184936	22,500000	46,290000
1,621768	-149,656976	549,587	-0,193833	22,500000	46,300000
1,598818	-173,417135	553,043	-0,203290	22,500000	46,275000
1,575824	-195,871938	556,496	-0,212227	22,510000	46,280000
1,552788	-219,449297	559,958	-0,221611	22,510000	46,295000
1,529811	-243,268344	563,415	-0,231091	22,510000	46,270000
1,506807	-265,723147	566,867	-0,240028	22,490000	46,315000
1,483836	-289,051458	570,325	-0,249312	22,500000	46,290000
1,460818	-312,661943	573,779	-0,258709	22,510000	46,280000
1,437827	-0,115323	577,236	-0,134316	22,490000	46,300000
1,414787	0,266224	580,692	-0,134164	22,490000	46,300000
1,391793	0,341061	584,152	-0,134134	22,510000	46,270000
1,368803	0,058888	587,607	-0,134247	22,510000	46,280000
1,345838	0,241687	591,062	-0,134174	22,490000	46,290000
1,322782	0,250275	594,519	-0,134170	22,500000	46,300000
1,299777	0,233099	597,973	-0,134177	22,480000	46,290000
1,276826	-0,282173	601,432	-0,134382	22,500000	46,290000
1,270808	-0,041712	602,332	-0,134287	22,500000	46,290000

File: AR-SA-450-1-450-3um-diff_LF-4x4-1
Quasi static measurement routine
Tip parameters (shape,radius, material...)
05.09.2022

Piezo position[nm]	MEMS displ.[nm]	Time[ms]	Cap [pf]	Temp [°C]	Rh [%]
eoh

X-Pos [um]	Y-Pos [um]
0,000265	0,001402

POC
1,947867
0,959833	-0,047779	1,958	-0,079876	94,250000	0,000000
0,972854	-0,008157	3,915	-0,079859	94,180000	0,000000
0,985846	0,149165	5,866	-0,079793	94,210000	0,000000
0,998878	-0,142173	7,819	-0,079916	94,210000	0,000000
1,011870	-0,135180	9,773	-0,079913	94,260000	0,000000
1,024850	-0,079244	11,726	-0,079889	94,260000	0,000000
1,037811	-0,110708	13,680	-0,079902	94,210000	0,000000
1,050833	-0,087401	15,634	-0,079893	94,210000	0,000000
1,063911	-0,079244	17,587	-0,079889	94,180000	0,000000
1,076816	-0,102551	19,538	-0,079899	94,180000	0,000000
1,089859	0,054771	21,490	-0,079833	94,230000	0,000000
1,102806	-0,047779	23,446	-0,079876	94,230000	0,000000
1,115793	-0,062929	25,399	-0,079882	94,240000	0,000000
1,128900	-0,016315	27,352	-0,079863	94,160000	0,000000
1,141824	0,000000	29,304	-0,079856	94,160000	0,000000
1,154828	0,046614	31,257	-0,079836	94,210000	0,000000
1,167871	-0,087401	33,211	-0,079893	94,120000	0,000000
1,180815	-0,110708	35,162	-0,079902	94,160000	0,000000
1,193741	-0,031464	37,117	-0,079869	94,160000	0,000000
1,206782	0,015150	39,069	-0,079850	94,240000	0,000000
1,219889	-0,158487	41,024	-0,079922	94,230000	0,000000
1,232751	-0,205101	42,974	-0,079942	94,120000	0,000000
1,245793	-0,135180	44,928	-0,079913	94,240000	0,000000
1,258806	0,000000	46,882	-0,079856	94,130000	0,000000
1,271803	0,054771	48,836	-0,079833	94,230000	0,000000
1,284808	-0,110708	50,789	-0,079902	94,130000	0,000000
1,297793	0,094393	52,742	-0,079816	94,170000	0,000000
1,310797	-0,071086	54,695	-0,079886	94,260000	0,000000
1,323818	-0,102551	56,646	-0,079899	94,260000	0,000000
1,336769	-0,110708	58,598	-0,079902	94,230000	0,000000
1,349802	-0,205101	60,551	-0,079942	94,200000	0,000000
1,362852	-0,016315	62,506	-0,079863	94,180000	0,000000
1,375784	0,023307	64,460	-0,079846	94,250000	0,000000
1,388834	0,008157	66,416	-0,079853	94,260000	0,000000
1,401886	-0,158487	68,371	-0,079922	94,260000	0,000000
1,414844	-0,189952	70,326	-0,079936	94,200000	0,000000
1,427763	-0,031464	72,278	-0,079869	94,150000	0,000000
1,440793	-0,039622	74,231	-0,079873	94,180000	0,000000
1,453770	-0,213259	76,184	-0,079945	94,210000	0,000000
1,466776	-0,071086	78,136	-0,079886	94,230000	0,000000
1,479802	0,244723	80,089	-0,079753	94,230000	0,000000
1,492816	-0,150330	82,040	-0,079919	94,240000	0,000000
1,505827	-0,031464	83,992	-0,079869	94,240000	0,000000
1,518830	-0,024472	85,945	-0,079866	94,240000	0,000000
1,531810	-0,008157	87,901	-0,079859	94,240000	0,000000
1,544790	-0,095559	89,852	-0,079896	94,240000	0,000000
1,557763	-0,039622	91,806	-0,079873	94,240000	0,000000
1,570832	-0,158487	93,759	-0,079922	94,240000	0,000000
1,583838	-0,229574	95,710	-0,079952	94,170000	0,000000
1,596741	-0,166645	97,661	-0,079926	94,210000	0,000000
1,609779	-0,244723	99,614	-0,079958	94,230000	0,000000
1,622815	-0,071086	101,570	-0,079886	94,230000	0,000000
1,635791	-0,071086	103,527	-0,079886	94,240000	0,000000
1,648822	-0,135180	105,478	-0,079913	94,240000	0,000000
1,661783	-0,386896	107,430	-0,080018	94,180000	0,000000
1,674781	-0,229574	109,383	-0,079952	94,180000	0,000000
1,687766	-0,315810	111,336	-0,079988	94,210000	0,000000
1,700783	-0,371746	113,288	-0,080012	94,210000	0,000000
1,713829	-0,150330	115,244	-0,079919	94,240000	0,000000
1,726836	-0,853036	117,198	-0,080213	94,150000	0,000000
1,739805	-0,213259	119,152	-0,079945	94,290000	0,000000
1,752804	-0,315810	121,107	-0,079988	94,160000	0,000000
1,765780	-0,466140	123,059	-0,080051	94,260000	0,000000
1,778841	-0,244723	125,009	-0,079958	94,160000	0,000000
1,791817	-0,363589	126,961	-0,080008	94,160000	0,000000
1,804768	-0,474297	128,919	-0,080055	94,240000	0,000000
1,817830	-0,608312	130,871	-0,080111	94,210000	0,000000
1,830750	-0,505761	132,825	-0,080068	94,210000	0,000000
1,843803	-0,836721	134,777	-0,080207	94,180000	0,000000
1,856770	-0,844878	136,731	-0,080210	94,180000	0,000000
1,869744	-0,963744	138,684	-0,080260	94,180000	0,000000
1,882802	-55,795747	140,640	-0,103234	94,160000	0,000000
1,895769	-42,612153	142,591	-0,097710	94,160000	0,000000
1,908761	-30,716270	144,544	-0,092726	94,120000	0,000000
1,921762	-17,588613	146,494	-0,087226	94,210000	0,000000
1,934776	-4,681207	148,450	-0,081817	94,230000	0,000000
1,947774	8,335742	150,405	-0,076363	94,180000	0,000000
1,960744	22,331584	152,359	-0,070499	94,180000	0,000000
1,973737	35,057195	154,314	-0,065167	94,240000	0,000000
1,986801	47,222274	156,269	-0,060070	94,210000	0,000000
1,999781	60,397710	158,222	-0,054549	94,210000	0,000000
2,012745	74,038121	160,176	-0,048834	94,150000	0,000000
2,025789	86,061027	162,127	-0,043796	94,210000	0,000000
2,038773	99,859925	164,080	-0,038015	94,260000	0,000000
2,051760	112,317506	166,037	-0,032795	94,180000	0,000000
2,064770	124,710993	167,989	-0,027602	94,180000	0,000000
2,072732	133,701661	169,944	-0,023835	94,210000	0,000000
2,061768	122,295225	171,899	-0,028614	94,210000	0,000000
2,048730	109,151253	173,850	-0,034122	94,210000	0,000000
2,035817	96,883624	175,801	-0,039262	94,180000	0,000000
2,022811	83,693038	177,754	-0,044789	94,180000	0,000000
2,009780	70,335807	179,710	-0,050385	94,170000	0,000000
1,996793	57,571739	181,667	-0,055733	94,100000	0,000000
1,983783	44,624711	183,620	-0,061158	94,260000	0,000000
1,970768	31,607762	185,574	-0,066612	94,200000	0,000000
1,957773	17,737778	187,527	-0,072424	94,200000	0,000000
1,944754	5,651943	189,484	-0,077488	94,250000	0,000000
1,931781	-7,546800	191,438	-0,083018	94,210000	0,000000
1,918798	-20,698930	193,390	-0,088529	94,210000	0,000000
1,905793	-34,150554	195,346	-0,094165	94,130000	0,000000
1,892733	-47,569548	197,299	-0,099788	94,130000	0,000000
1,879769	-60,761299	199,252	-0,105315	94,160000	0,000000
1,866759	-72,933370	201,204	-0,110415	94,260000	0,000000
1,853803	-85,920020	203,156	-0,115856	94,290000	0,000000
1,840837	-99,757374	205,109	-0,121654	94,290000	0,000000
1,827791	-111,701037	207,064	-0,126659	94,240000	0,000000
1,814757	-124,719151	209,018	-0,132113	94,180000	0,000000
1,801792	-138,802394	210,971	-0,138014	94,180000	0,000000
1,788836	-150,888229	212,925	-0,143078	94,210000	0,000000
1,775855	-163,905178	214,880	-0,148532	94,210000	0,000000
1,762833	-176,986221	216,834	-0,154013	94,230000	0,000000
1,749805	-189,995012	218,788	-0,159464	94,210000	0,000000
1,736807	-203,881312	220,741	-0,165282	94,210000	0,000000
1,723770	-215,982296	222,694	-0,170353	94,210000	0,000000
1,710801	-228,850080	224,648	-0,175744	94,160000	0,000000
1,697781	-242,467184	226,600	-0,181450	94,160000	0,000000
1,684853	-255,973579	228,553	-0,187109	94,180000	0,000000
1,671789	-268,146815	230,504	-0,192209	94,160000	0,000000
1,658767	-282,016800	232,455	-0,198021	94,320000	0,000000
1,645777	-294,125942	234,408	-0,203095	94,150000	0,000000
1,632810	-307,980776	236,358	-0,208900	94,180000	0,000000
1,619829	-319,821888	238,311	-0,213861	94,180000	0,000000
1,606827	-333,052096	240,264	-0,219405	94,260000	0,000000
1,593862	-345,856951	242,219	-0,224770	94,240000	0,000000
1,580875	-358,991600	244,174	-0,230273	94,130000	0,000000
1,567869	-372,095950	246,126	-0,235764	94,130000	0,000000
1,554831	-384,829719	248,079	-0,241100	94,210000	0,000000
[...]
2,942303	1131,507309	582,511	0,394742	94,860000	0,000000
2,908377	1096,772915	587,619	0,380188	94,820000	0,000000
2,874314	1063,863458	592,723	0,366399	94,820000	0,000000
2,840343	1028,608154	597,831	0,351627	94,810000	0,000000
2,806298	995,666067	602,940	0,337824	94,780000	0,000000
2,772354	961,847638	608,052	0,323654	94,860000	0,000000
2,738282	926,987386	613,159	0,309048	94,830000	0,000000
2,704360	892,987163	618,263	0,294802	94,830000	0,000000
2,670363	859,492700	623,371	0,280768	94,750000	0,000000
2,636341	825,485484	628,482	0,266519	94,800000	0,000000
2,602383	791,153136	633,594	0,252133	94,820000	0,000000
2,568313	756,332507	638,706	0,237543	94,780000	0,000000
2,534352	723,628151	643,814	0,223840	94,860000	0,000000
2,500402	689,161788	648,919	0,209399	94,820000	0,000000
2,466361	655,052021	654,025	0,195107	94,830000	0,000000
2,432422	620,861846	659,134	0,180781	94,780000	0,000000
2,398385	587,020109	664,241	0,166602	94,730000	0,000000
2,364348	553,865929	669,353	0,152710	94,830000	0,000000
2,330369	519,951941	674,465	0,138500	94,770000	0,000000
2,296367	485,944725	679,578	0,124251	94,810000	0,000000
2,262367	452,433948	684,683	0,110210	94,810000	0,000000
2,228367	418,339331	689,790	0,095924	94,850000	0,000000
2,194419	384,608303	694,898	0,081791	94,800000	0,000000
2,160390	350,726945	700,006	0,067595	94,810000	0,000000
2,126390	315,881843	705,114	0,052995	94,810000	0,000000
2,092413	282,292987	710,226	0,038921	94,770000	0,000000
2,058428	249,287972	715,336	0,025092	94,810000	0,000000
2,024361	214,892695	720,441	0,010680	94,780000	0,000000
1,990411	180,916943	725,548	-0,003556	94,810000	0,000000
1,956380	147,587961	730,651	-0,017521	94,780000	0,000000
1,922352	113,366320	735,761	-0,031859	94,800000	0,000000
1,888350	79,540899	740,872	-0,046032	94,830000	0,000000
1,854402	45,879792	745,978	-0,060136	94,810000	0,000000
1,820404	12,677832	751,087	-0,074048	94,810000	0,000000
1,786354	-20,832945	756,192	-0,088089	94,810000	0,000000
1,752406	-55,511402	761,301	-0,102619	94,810000	0,000000
1,718418	-89,756349	766,412	-0,116968	94,830000	0,000000
1,684362	-123,321897	771,523	-0,131032	94,780000	0,000000
1,650393	-155,845624	776,632	-0,144659	94,810000	0,000000
1,616405	-190,373751	781,743	-0,159126	94,830000	0,000000
1,582417	-223,742355	786,853	-0,173108	94,800000	0,000000
1,548386	-257,931366	791,965	-0,187433	94,800000	0,000000
1,514444	-291,111184	797,075	-0,201335	94,830000	0,000000
1,480437	-325,078778	802,183	-0,215568	94,780000	0,000000
1,446437	-358,399603	807,291	-0,229529	94,730000	0,000000
1,412374	-392,067702	812,397	-0,243636	94,770000	0,000000
1,378455	-426,651766	817,510	-0,258127	94,860000	0,000000
1,344442	-459,271051	822,614	-0,271794	94,860000	0,000000
1,310424	-491,912478	827,721	-0,285471	94,830000	0,000000
1,276435	-527,814551	832,834	-0,300514	94,820000	0,000000
1,242386	-560,022468	837,944	-0,314009	94,820000	0,000000
1,208407	-594,702090	843,051	-0,328540	94,860000	0,000000
1,174435	-627,659327	848,156	-0,342349	94,820000	0,000000
1,140400	-661,651393	853,263	-0,356592	94,830000	0,000000
1,106451	-694,340599	858,373	-0,370289	94,820000	0,000000
1,072405	-727,100891	863,484	-0,384015	94,810000	0,000000
1,038392	-760,958942	868,591	-0,398202	94,820000	0,000000
1,004475	-794,185374	873,703	-0,412124	94,810000	0,000000
0,970403	-827,759080	878,812	-0,426191	94,850000	0,000000
0,936407	-860,755939	883,926	-0,440017	94,860000	0,000000
0,902431	-895,648820	889,036	-0,454637	94,820000	0,000000
0,868433	-927,746028	894,150	-0,468085	94,860000	0,000000
0,834404	-0,062929	899,263	-0,079386	94,830000	0,000000
0,810442	-0,236566	902,869	-0,079459	94,830000	0,000000