Folder: Nanoindentation_Analysis/Nanoindentation Datenauswertung/data

File: 0,7um
Quasi static measurement routine
Tip parameters (shape,radius, material...)
11.07.2022

Piezo position[nm]	MEMS displ.[nm]	Time[ms]	Cap [pf]
eoh
2,375882	0,853930	0,170	-0,105129
2,381893	0,731297	0,321	-0,105183
2,387935	0,609789	0,471	-0,105235
2,393910	0,182262	0,645	-0,105421
2,399922	-0,670543	0,796	-0,105791
2,405895	-1,342211	0,947	-0,106083
2,411891	-1,524473	1,111	-0,106162
2,417874	-1,707859	1,261	-0,106241
2,423875	-1,950875	1,436	-0,106347
2,429895	-1,890121	1,586	-0,106320
2,435927	-2,744051	1,738	-0,106691
2,441936	-3,170453	1,914	-0,106876
2,447875	-4,085136	2,064	-0,107273
2,453834	-4,267398	2,215	-0,107352
2,459919	-4,511539	2,375	-0,107458
2,465883	-5,060574	2,525	-0,107696
2,471874	-5,853750	2,701	-0,108041
2,477886	-7,438976	2,851	-0,108729
2,483888	-7,865378	3,010	-0,108914
2,489887	-8,414414	3,162	-0,109152
2,495934	-8,719308	3,313	-0,109284
2,501927	-12,925952	3,487	-0,111110
2,507859	-13,779882	3,638	-0,111480
2,513904	-13,474987	3,788	-0,111348
2,519903	-16,706194	3,957	-0,112750
2,525866	-16,522807	4,107	-0,112671
2,531894	-19,083471	4,283	-0,113782
2,537880	-19,998155	4,435	-0,114179
2,543885	-20,060034	4,614	-0,114206
2,549896	-21,583381	4,777	-0,114867
2,555903	-32,679967	4,928	-0,119683
2,561894	-29,814408	5,086	-0,118439
2,567847	-26,766588	5,236	-0,117117
2,573959	-23,047100	5,386	-0,115502
2,579955	-19,632506	5,537	-0,114021
2,585867	-17,071843	5,687	-0,112909
2,591886	-13,962144	5,838	-0,111560
2,597873	-11,462234	5,989	-0,110475
2,603916	-8,231027	6,141	-0,109072
2,609938	-5,060574	6,292	-0,107696
2,615912	-1,280332	6,442	-0,106056
2,621897	1,950875	6,592	-0,104653
2,627898	4,450785	6,742	-0,103568
2,633867	8,352535	6,894	-0,101875
2,639903	11,767128	7,068	-0,100393
2,645890	15,181722	7,218	-0,098911
2,651865	17,985401	7,368	-0,097694
2,657910	21,888276	7,519	-0,096000
2,663899	26,339061	7,671	-0,094069
2,669867	30,180057	7,840	-0,092402
2,675893	34,447455	7,990	-0,090550
2,681878	39,142380	8,140	-0,088512
2,687896	43,714673	8,300	-0,086528
2,693900	48,227337	8,451	-0,084569
2,699912	51,702684	8,616	-0,083061
2,705900	56,274977	8,767	-0,081077
2,711919	60,115972	8,917	-0,079410
2,717877	64,079601	9,072	-0,077689
2,723912	68,042105	9,224	-0,075970
2,729905	71,151804	9,374	-0,074620
2,735858	73,651714	9,526	-0,073535
2,741862	75,724096	9,678	-0,072636
2,747902	79,199444	9,835	-0,071127
2,753865	81,455213	9,986	-0,070148
2,759847	84,199264	10,137	-0,068958
2,765899	87,492350	10,330	-0,067528
2,771865	90,418662	10,480	-0,066258
2,777869	94,259658	10,631	-0,064591
2,783906	97,246724	10,782	-0,063295
2,789921	100,539810	10,933	-0,061866
2,795915	104,320051	11,084	-0,060225
2,801905	107,551258	11,235	-0,058823
2,807885	111,208867	11,385	-0,057235
2,813864	113,708777	11,558	-0,056150
2,819889	117,184125	11,709	-0,054642
2,825888	119,988929	11,860	-0,053425
2,831874	123,769171	12,011	-0,051784
2,837863	126,573976	12,163	-0,050567
2,843878	129,805183	12,316	-0,049165
2,849917	133,097143	12,468	-0,047736
2,855900	135,780440	12,619	-0,046571
2,861834	139,316541	12,771	-0,045037
2,867810	142,547748	12,921	-0,043634
2,873921	145,474060	13,084	-0,042364
2,879804	148,644513	13,235	-0,040988
2,885890	152,303247	13,415	-0,039400
2,891872	155,900103	13,566	-0,037839
2,897881	159,863731	13,716	-0,036119
2,903844	162,667411	13,868	-0,034902
2,909908	165,289954	14,018	-0,033764
2,915864	167,119321	14,169	-0,032970
2,921911	168,947563	14,320	-0,032177
2,927903	170,960316	14,470	-0,031303
2,933829	173,825875	14,620	-0,030060
2,939882	176,934449	14,772	-0,028710
2,945903	180,593183	14,923	-0,027123
2,951854	183,458741	15,079	-0,025879
2,957916	187,421245	15,229	-0,024159
2,963841	189,738893	15,379	-0,023153
2,969870	194,494573	15,542	-0,021089
2,975871	197,542393	15,692	-0,019767
2,981892	200,835478	15,843	-0,018337
2,987890	203,822545	15,994	-0,017041
2,993908	207,114505	16,146	-0,015612
2,999921	210,468345	16,309	-0,014157
3,005864	212,176204	16,461	-0,013416
3,011871	214,553481	16,611	-0,012384
3,017871	218,150337	16,762	-0,010823
3,023862	221,443422	16,913	-0,009394
3,029908	225,589313	17,066	-0,007594
3,035882	228,149977	17,216	-0,006483
3,041903	231,441937	17,366	-0,005054
3,047888	234,733898	17,516	-0,003625
3,053831	238,515265	17,667	-0,001984
3,059879	242,051366	17,819	-0,000450
3,065879	243,636593	17,970	0,000238
3,071834	246,013870	18,120	0,001270
3,075878	247,599096	18,270	0,001958
3,075858	247,233448	18,420	0,001799
3,075831	246,196132	18,571	0,001349
3,075872	246,013870	18,724	0,001270
3,075856	246,136503	18,874	0,001323
3,075840	246,013870	19,026	0,001270
3,075857	246,318764	19,176	0,001402
3,075835	245,159940	19,326	0,000899
3,075835	245,587468	19,485	0,001085
3,075853	245,526714	19,636	0,001059
3,075844	244,977679	19,786	0,000820
3,075897	245,159940	19,940	0,000899
3,075867	244,977679	20,091	0,000820
3,075835	245,220694	20,244	0,000926
3,075827	244,977679	20,394	0,000820
3,075863	245,038432	20,544	0,000847
3,075876	245,099186	20,709	0,000873
3,075895	244,855046	20,860	0,000767
3,075854	245,526714	21,014	0,001059
3,075868	245,038432	21,165	0,000847
3,075911	244,672784	21,315	0,000688
3,075866	244,916925	21,465	0,000794
3,075868	244,977679	21,616	0,000820
3,075814	244,977679	21,766	0,000820
3,075840	244,733538	21,916	0,000714
3,075885	244,550151	22,068	0,000635
3,075849	244,916925	22,229	0,000794
3,075859	244,489397	22,382	0,000608
3,075864	244,550151	22,533	0,000635
3,075839	244,550151	22,686	0,000635
3,075887	244,733538	22,837	0,000714
3,075906	244,916925	22,989	0,000794
3,075881	244,612030	23,144	0,000662
3,075855	244,977679	23,295	0,000820
3,069853	241,623839	23,445	-0,000635
3,063859	237,233808	23,595	-0,002541
3,057852	232,722269	23,746	-0,004499
3,051900	228,454871	23,910	-0,006351
3,045892	225,771574	24,062	-0,007515
3,039874	219,797442	24,216	-0,010108
3,033885	215,955321	24,366	-0,011775
3,027893	211,260396	24,519	-0,013813
3,021831	206,871490	24,670	-0,015718
3,015893	202,420705	24,820	-0,017649
3,009850	198,030674	24,970	-0,019555
3,003893	193,396502	25,120	-0,021566
2,997888	189,799647	25,271	-0,023127
2,991879	184,799827	25,422	-0,025297
2,985906	180,775445	25,575	-0,027043
2,979859	176,508047	25,725	-0,028896
2,973894	172,178769	25,876	-0,030774
2,967853	167,972125	26,026	-0,032600
2,961878	163,704727	26,177	-0,034452
2,955870	159,436204	26,337	-0,036305
2,949878	155,412946	26,488	-0,038051
2,943873	151,022915	26,639	-0,039956
2,937904	146,815146	26,790	-0,041782
2,931878	142,547748	26,940	-0,043634
2,925829	138,584119	27,109	-0,045354
2,919884	134,621616	27,261	-0,047074
2,913817	130,780620	27,417	-0,048741
2,907921	126,512097	27,568	-0,050594
2,901860	121,756417	27,719	-0,052658
2,895851	117,184125	27,870	-0,054642
2,889919	112,916727	28,021	-0,056494
2,883857	108,161047	28,171	-0,058558
2,877877	104,320051	28,322	-0,060225
2,871895	99,807388	28,473	-0,062184
2,865899	95,417357	28,624	-0,064089
2,859844	91,759748	28,775	-0,065676
2,853881	87,553103	28,926	-0,067502
2,847901	82,736670	29,092	-0,069592
2,841904	78,773041	29,243	-0,071313
2,835898	76,028991	29,394	-0,072503
2,829889	70,115612	29,548	-0,075070
2,823878	66,151984	29,699	-0,076790
2,817889	61,822707	29,858	-0,078669
2,811884	57,128906	30,010	-0,080706
2,805842	52,738875	30,160	-0,082611
2,799865	49,142020	30,321	-0,084172
2,793828	44,691235	30,472	-0,086104
2,787916	40,301204	30,623	-0,088009
2,781877	37,252259	30,773	-0,089333
2,775968	31,886791	30,924	-0,091661
2,769923	27,192990	31,080	-0,093698
2,763910	23,350869	31,231	-0,095366
2,757884	19,388366	31,381	-0,097085
2,751877	15,424737	31,532	-0,098806
2,745861	11,278847	31,684	-0,100605
2,739897	6,462414	31,839	-0,102695
2,733893	2,377277	31,991	-0,104468
2,727860	-1,158824	32,141	-0,106003
2,721899	-2,255769	32,300	-0,106479
2,715887	-4,329277	32,450	-0,107379
2,709871	-5,060574	32,600	-0,107696
2,703891	-7,438976	32,759	-0,108729
2,697879	-9,206464	32,910	-0,109496
2,691885	-9,572113	33,073	-0,109654
2,685892	-11,767128	33,223	-0,110607
2,679922	-13,047460	33,373	-0,111163
2,673908	-14,755319	33,523	-0,111904
2,667921	-16,645440	33,674	-0,112724
2,661863	-18,169913	33,830	-0,113386
2,655901	-20,486436	33,981	-0,114391
2,649883	-22,498065	34,131	-0,115264
2,643954	-23,717643	34,292	-0,115793
2,637864	-25,973412	34,443	-0,116772
2,631892	-27,253744	34,593	-0,117328
2,625911	-27,619393	34,757	-0,117487
2,619938	-28,594830	34,908	-0,117910
2,613924	-30,058549	35,066	-0,118545
2,607927	-30,973232	35,217	-0,118942
2,601886	-32,375072	35,369	-0,119551
2,595930	-34,509334	35,526	-0,120477
2,589880	-35,606279	35,676	-0,120953
2,583922	-36,948490	35,828	-0,121536
2,577895	-38,715978	35,978	-0,122303
2,571914	-39,204259	36,128	-0,122515
2,565889	-40,179697	36,278	-0,122938
2,559901	-41,094380	36,429	-0,123335
2,553872	-42,252079	36,580	-0,123837
2,547918	-43,227517	36,732	-0,124261
2,541910	-44,447095	36,884	-0,124790
2,535908	-44,812743	37,043	-0,124949
2,529878	-44,691235	37,193	-0,124896
2,523868	-32,130931	37,344	-0,119445
2,517919	-32,802599	37,511	-0,119736
2,511863	-25,302869	37,661	-0,116481
2,505898	-25,973412	37,825	-0,116772
2,499938	-25,729272	37,975	-0,116667
2,493933	-25,363623	38,125	-0,116508
2,487896	-24,327432	38,278	-0,116058
2,481884	-19,876647	38,429	-0,114126
2,475913	-16,766948	38,579	-0,112777
2,469867	-11,767128	38,737	-0,110607
2,463900	-11,462234	38,889	-0,110475
2,457922	-10,609429	39,040	-0,110104
2,451889	-9,877007	39,191	-0,109787
2,445891	-9,206464	39,344	-0,109496
2,439902	-8,596675	39,511	-0,109231
2,433916	-7,681992	39,662	-0,108834
2,427890	-6,463539	39,829	-0,108305
2,421877	-6,097890	39,979	-0,108146
2,415920	-4,024383	40,130	-0,107247
2,409905	-3,536101	40,283	-0,107035
2,403890	-3,293086	40,433	-0,106929
2,397960	-2,926312	40,585	-0,106770
2,391939	-2,134262	40,736	-0,106426
2,385892	-1,707859	40,886	-0,106241
2,379930	-1,585226	41,036	-0,106188
2,375904	-0,609789	41,136	-0,105765

File: 1,9um
Quasi static measurement routine
Tip parameters (shape,radius, material...)
11.07.2022

Piezo position[nm]	MEMS displ.[nm]	Time[ms]	Cap [pf]
eoh
2,342005	-0,365648	0,188	-0,098355
2,358025	-0,183387	0,598	-0,098276
2,374042	-0,975437	1,002	-0,098620
2,390046	-1,098070	1,402	-0,098673
2,406047	-1,645980	1,809	-0,098911
2,422032	-2,073508	2,211	-0,099097
2,438055	-2,134262	2,613	-0,099123
2,454048	-3,048945	3,014	-0,099520
2,470027	-3,658734	3,416	-0,099785
2,486013	-6,340906	3,818	-0,100949
2,502021	-7,377097	4,218	-0,101398
2,518047	-7,560484	4,623	-0,101478
2,534073	-8,535921	5,027	-0,101901
2,550016	-9,024203	5,428	-0,102113
2,566020	-14,083651	5,832	-0,104309
2,582015	-9,206464	6,232	-0,102192
2,598065	0,121508	6,634	-0,098144
2,614045	10,975077	7,040	-0,093434
2,630000	22,132416	7,447	-0,088591
2,646038	32,375072	7,851	-0,084146
2,661998	42,252079	8,252	-0,079859
2,678052	51,580051	8,654	-0,075811
2,694044	60,604254	9,056	-0,071895
2,710028	69,627331	9,458	-0,067979
2,726032	78,407393	9,858	-0,064168
2,742023	87,857998	10,259	-0,060066
2,758016	96,820322	10,668	-0,056177
2,774030	106,270926	11,070	-0,052075
2,790047	115,477391	11,474	-0,048080
2,806016	124,683855	11,875	-0,044084
2,822037	133,402038	12,284	-0,040300
2,838004	142,182100	12,686	-0,036490
2,854009	151,570826	13,091	-0,032415
2,870018	158,582274	13,501	-0,029372
2,886014	165,837864	13,911	-0,026223
2,901993	174,922820	14,312	-0,022280
2,918033	184,312671	14,714	-0,018205
2,934033	192,055417	15,115	-0,014845
2,950007	199,860041	15,516	-0,011458
2,966002	207,968435	15,920	-0,007938
2,982047	215,040638	16,321	-0,004869
2,997998	221,930579	16,724	-0,001879
3,014002	229,125414	17,132	0,001244
3,029983	238,026984	17,543	0,005107
3,045997	246,258011	17,947	0,008679
3,061976	255,098826	18,357	0,012516
3,078019	264,487552	18,759	0,016591
3,094009	274,547946	19,168	0,020957
3,110025	283,754410	19,570	0,024953
3,125942	289,364019	19,972	0,027387
3,142021	295,643046	20,375	0,030112
3,157944	303,447671	20,776	0,033500
3,173992	312,409994	21,176	0,037389
3,190032	321,860599	21,576	0,041491
3,205947	329,176942	21,976	0,044666
3,221988	333,871868	22,381	0,046704
3,237952	342,712684	22,781	0,050541
3,253990	351,675007	23,181	0,054430
3,269983	360,576577	23,583	0,058293
3,285976	368,381201	23,987	0,061681
3,301970	372,953494	24,394	0,063665
3,318003	377,587666	24,796	0,065676
3,333943	384,659868	25,196	0,068746
3,349988	390,817387	25,605	0,071418
3,365973	399,597449	26,006	0,075229
3,381962	405,633461	26,418	0,077848
3,397938	412,157753	26,819	0,080680
3,414024	420,266147	27,224	0,084199
3,429927	427,887385	27,626	0,087506
3,445915	434,959587	28,028	0,090576
3,461951	444,776966	28,430	0,094836
3,477897	454,165692	28,830	0,098911
3,493924	463,616296	29,232	0,103013
3,509927	473,981585	29,633	0,107511
3,525873	484,955537	30,034	0,112274
3,541878	496,661911	30,444	0,117354
3,557943	507,392848	30,864	0,122012
3,573947	519,281484	31,270	0,127171
3,589950	530,622210	31,680	0,132093
3,605925	542,145197	32,081	0,137094
3,621917	553,181029	32,483	0,141884
3,637843	564,461001	32,884	0,146779
3,653897	574,764410	33,287	0,151251
3,669896	586,165890	33,689	0,156199
3,685893	595,921389	34,106	0,160433
3,701845	606,103291	34,521	0,164852
3,717911	617,991926	34,927	0,170012
3,733897	628,906250	35,329	0,174749
3,749953	639,819448	35,731	0,179485
3,765829	650,855280	36,136	0,184274
3,781915	662,073373	36,538	0,189143
3,797901	673,718993	36,939	0,194197
3,813926	684,754824	37,348	0,198987
3,829932	696,460073	37,782	0,204067
3,845924	708,593975	38,188	0,209333
3,861863	720,300349	38,593	0,214414
3,877924	731,884091	38,999	0,219441
3,893919	743,285570	39,400	0,224389
3,909876	755,296839	39,801	0,229602
3,925833	766,454178	40,202	0,234444
3,941875	779,135990	40,605	0,239948
3,957882	790,476716	41,016	0,244870
3,973907	802,487984	41,424	0,250083
3,989911	814,132479	41,867	0,255137
4,005881	825,778100	42,268	0,260191
4,021889	838,032384	42,680	0,265509
4,037891	848,763321	43,081	0,270167
4,053874	859,921785	43,491	0,275009
4,069882	872,176069	43,895	0,280328
4,085886	883,029639	44,298	0,285038
4,101881	892,784013	44,714	0,289271
4,117862	904,978669	45,131	0,294564
4,133861	916,318269	45,542	0,299485
4,149841	927,903136	45,942	0,304513
4,165850	937,719389	46,347	0,308773
4,181818	948,450326	46,749	0,313431
4,197885	960,338962	47,161	0,318590
4,213854	971,801195	47,578	0,323565
4,229845	983,507569	47,985	0,328646
4,241825	991,738596	48,391	0,332218
4,241839	992,043491	48,792	0,332350
4,241821	992,104245	49,193	0,332376
4,241803	991,738596	49,593	0,332218
4,241822	991,860104	49,993	0,332271
4,241876	991,494456	50,394	0,332112
4,241849	991,128807	50,805	0,331953
4,241818	991,921983	51,221	0,332297
4,241784	991,617088	51,642	0,332165
4,241823	991,738596	52,047	0,332218
4,241785	991,617088	52,447	0,332165
4,241824	991,433702	52,853	0,332085
4,241825	991,372948	53,261	0,332059
4,229826	982,410624	53,676	0,328169
4,213854	970,276723	54,079	0,322903
4,197819	958,022438	54,487	0,317585
4,181878	946,011170	54,893	0,312372
4,165839	934,548936	55,294	0,307397
4,149897	922,354281	55,695	0,302105
4,133874	910,039243	56,098	0,296760
4,117769	897,662325	56,501	0,291389
4,101852	886,077459	56,903	0,286361
4,085873	873,090753	57,306	0,280725
4,069893	861,446258	57,718	0,275671
4,053875	848,397672	58,129	0,270008
4,037873	836,630544	58,550	0,264901
4,021846	824,437014	58,964	0,259609
4,005856	811,937464	59,393	0,254184
3,989868	799,622426	59,796	0,248839
3,973885	786,878735	60,198	0,243309
3,957871	775,050853	60,599	0,238175
3,941879	762,918077	61,002	0,232910
3,925924	750,297019	61,403	0,227432
3,909916	736,883911	61,807	0,221611
3,893959	725,116782	62,227	0,216504
3,877894	712,984006	62,631	0,211238
3,861920	700,911983	63,034	0,205999
3,845889	687,925277	63,437	0,200363
3,829930	676,706059	63,854	0,195494
3,813901	664,024248	64,259	0,189990
3,797870	651,891471	64,661	0,184724
3,781856	638,904765	65,080	0,179088
3,765936	627,076883	65,498	0,173955
3,749869	614,516579	65,902	0,168503
3,733922	602,262295	66,302	0,163185
3,717903	590,677428	66,712	0,158157
3,701827	578,910300	67,113	0,153050
3,685916	566,411875	67,529	0,147626
3,669914	553,790818	67,936	0,142148
3,653955	542,571600	68,360	0,137279
3,637900	529,829034	68,761	0,131749
3,621887	517,818890	69,162	0,126537
3,605928	505,929129	69,578	0,121376
3,589902	494,222755	69,987	0,116296
3,573929	482,150733	70,390	0,111057
3,557889	470,749253	70,803	0,106108
3,541901	458,494969	71,215	0,100790
3,525919	447,093489	71,615	0,095842
3,509963	434,349798	72,034	0,090311
3,493923	423,680741	72,448	0,085681
3,477901	411,243070	72,861	0,080283
3,461929	399,475941	73,263	0,075176
3,445954	387,830321	73,663	0,070122
3,429933	376,184701	74,065	0,065067
3,413974	365,210748	74,467	0,060305
3,397929	353,138726	74,868	0,055065
3,381979	342,042141	75,299	0,050250
3,365962	331,189696	75,709	0,045540
3,349963	319,604830	76,110	0,040512
3,334020	308,629752	76,513	0,035749
3,317972	296,801870	76,919	0,030615
3,301973	285,827918	77,323	0,025853
3,285970	274,792087	77,741	0,021063
3,269988	262,963080	78,151	0,015929
3,254010	251,318584	78,567	0,010875
3,237971	239,977859	79,016	0,005954
3,221953	228,820520	79,422	0,001111
3,206013	217,784688	79,841	-0,003678
3,189952	206,566595	80,255	-0,008547
3,173992	195,408131	80,662	-0,013390
3,157978	183,397987	81,069	-0,018602
3,141977	172,057262	81,472	-0,023524
3,125977	160,655782	81,901	-0,028472
3,109975	149,559197	82,310	-0,033288
3,094001	139,742944	82,721	-0,037548
3,077981	127,793554	83,123	-0,042734
3,061974	118,038054	83,553	-0,046968
3,045964	109,136485	83,964	-0,050832
3,030010	101,820141	84,380	-0,054007
3,014043	95,479236	84,797	-0,056759
2,998004	89,443224	85,219	-0,059378
2,982003	83,955123	85,622	-0,061760
2,965984	80,479776	86,037	-0,063269
2,950050	74,810538	86,440	-0,065729
2,934042	72,249874	86,865	-0,066840
2,918086	68,102859	87,266	-0,068640
2,902028	64,810898	87,669	-0,070069
2,886023	60,177851	88,072	-0,072080
2,870053	55,970082	88,478	-0,073906
2,853990	51,519297	88,896	-0,075837
2,838037	46,581356	89,320	-0,077980
2,822006	41,947185	89,727	-0,079992
2,806066	39,691415	90,156	-0,080971
2,790005	34,570087	90,562	-0,083193
2,774021	30,545705	90,968	-0,084940
2,758025	25,850779	91,369	-0,086978
2,741999	22,863713	91,777	-0,088274
2,726055	17,986526	92,229	-0,090391
2,710077	13,840636	92,631	-0,092190
2,694052	9,511359	93,034	-0,094069
2,678038	5,182082	93,451	-0,095948
2,662046	1,096945	93,879	-0,097721
2,646002	-2,621418	94,301	-0,099334
2,630031	-5,121328	94,724	-0,100419
2,614077	-9,329097	95,132	-0,102246
2,598034	-13,840636	95,535	-0,104204
2,582059	-14,511179	95,957	-0,104495
2,566056	-15,486616	96,371	-0,104918
2,550007	-14,450425	96,783	-0,104468
2,534042	-13,596495	97,194	-0,104098
2,518028	-12,681812	97,616	-0,103701
2,502004	-10,791691	98,038	-0,102880
2,486063	-10,304534	98,459	-0,102669
2,470061	-6,585046	98,884	-0,101055
2,454018	-5,121328	99,292	-0,100419
2,438021	-4,329277	99,714	-0,100076
2,422016	-4,390031	100,131	-0,100102
2,406032	-2,011629	100,540	-0,099070
2,390032	-1,524473	100,942	-0,098858
2,374029	-1,158824	101,372	-0,098700
2,358060	-0,670543	101,793	-0,098488
2,342020	-0,121508	102,213	-0,098250