Folder: Nanoindentation_Analysis/Nanoindentation Datenauswertung/data (part 6)

File: partial unload on sapphire-2,25ms
Quasi static measurement routine
Tip parameters (shape,radius, material...)
28.06.2022

Piezo position[nm]	MEMS displ.[nm]	Time[ms]	Cap [pf]
eoh
4,291510	-0,541548	0,038	-0,093222
4,306630	-0,902211	0,706	-0,093381
4,319628	-0,963246	1,372	-0,093408
4,332603	-0,661399	2,039	-0,093275
4,345668	-0,782360	2,697	-0,093328
4,358590	-0,361772	3,378	-0,093143
4,371620	-0,722434	4,047	-0,093302
4,384607	0,901101	4,717	-0,092587
4,397611	13,891602	5,400	-0,086872
4,410608	26,520330	6,072	-0,081315
4,423580	39,270020	6,730	-0,075705
4,436628	52,621183	7,423	-0,069831
4,449604	65,130060	8,094	-0,064327
4,462600	77,638938	8,760	-0,058823
4,475639	90,147816	9,441	-0,053319
4,488563	104,340154	10,117	-0,047074
4,493579	108,971058	10,787	-0,045037
4,493552	109,511497	11,475	-0,044799
4,493656	109,271795	12,159	-0,044904
4,493592	109,211870	12,828	-0,044931
4,493609	109,391646	13,517	-0,044852
4,493598	108,971058	14,192	-0,045037
4,493542	108,790172	14,864	-0,045116
4,493561	109,331721	15,532	-0,044878
4,481571	98,446378	16,216	-0,049667
4,468625	85,397061	16,898	-0,055409
4,455584	72,587447	17,568	-0,061045
4,444574	58,815696	18,243	-0,067105
4,457600	72,105824	18,917	-0,061257
4,470558	84,554776	19,595	-0,055780
4,483553	98,205566	20,284	-0,049773
4,496554	111,436879	20,963	-0,043952
4,509597	124,005682	21,669	-0,038421
4,522607	136,634411	22,342	-0,032865
4,535559	149,503951	23,029	-0,027202
4,548566	163,034890	23,722	-0,021249
4,561595	175,784579	24,397	-0,015639
4,574563	188,594194	25,080	-0,010002
4,587585	201,403809	25,762	-0,004366
4,600636	214,874822	26,458	0,001561
4,613562	227,082963	27,140	0,006933
4,626535	240,553977	27,804	0,012860
4,639577	253,002930	28,489	0,018337
4,652562	266,053356	29,160	0,024080
4,665558	278,801935	29,848	0,029689
4,678564	291,732511	30,528	0,035378
4,691560	304,120428	31,201	0,040829
4,693564	307,368608	31,892	0,042258
4,693495	307,488459	32,583	0,042311
4,693502	307,067871	33,272	0,042126
4,693500	307,308683	33,942	0,042232
4,693541	307,669345	34,630	0,042391
4,693518	307,548384	35,305	0,042337
4,693532	307,067871	35,978	0,042126
4,692509	307,308683	36,655	0,042232
4,679524	294,558993	37,351	0,036622
4,666607	280,666282	38,023	0,030509
4,653530	267,616966	38,709	0,024768
4,640505	255,168013	39,398	0,019290
4,627514	242,298473	40,083	0,013627
4,614536	228,646573	40,740	0,007621
4,601541	216,258656	41,431	0,002170
4,598547	211,327015	42,111	0,000000
4,611542	223,895819	42,790	0,005530
4,624545	238,148082	43,468	0,011801
4,637544	249,875710	44,162	0,016961
4,650588	263,526500	44,859	0,022968
4,663519	277,479137	45,527	0,029107
4,676521	289,627353	46,223	0,034452
4,689536	302,436967	46,912	0,040088
4,702566	315,125621	47,590	0,045671
4,715569	329,438920	48,287	0,051969
4,728515	341,407360	48,963	0,057235
4,741489	354,275790	49,632	0,062897
4,754511	367,446067	50,343	0,068692
4,767511	380,135831	51,039	0,074276
4,780490	393,306108	51,740	0,080071
4,793488	405,995872	52,419	0,085654
4,806500	418,504750	53,116	0,091158
4,819502	430,772816	53,786	0,096556
4,832460	444,003018	54,485	0,102377
4,845521	457,294256	55,155	0,108226
4,858484	469,922985	55,859	0,113782
4,871445	482,371937	56,570	0,119260
4,884451	496,022727	57,238	0,125266
4,893505	505,645197	57,956	0,129500
4,893438	505,464311	58,662	0,129420
4,893414	505,224609	59,362	0,129315
4,893501	505,224609	60,039	0,129315
4,893476	505,284535	60,742	0,129341
4,893395	505,224609	61,454	0,129315
4,893437	505,464311	62,162	0,129420
4,893440	505,705123	62,835	0,129526
4,885481	498,248846	63,544	0,126246
4,872444	485,919744	64,239	0,120821
4,859439	472,147994	64,940	0,114761
4,846450	458,736905	65,608	0,108860
4,833490	446,348988	66,319	0,103410
4,820467	431,794877	67,026	0,097006
4,807537	419,707697	67,717	0,091688
4,794499	407,017933	68,393	0,086104
4,781474	394,088468	69,102	0,080415
4,768463	381,157892	69,805	0,074726
4,755500	367,686879	70,492	0,068798
4,744490	354,817338	71,162	0,063136
4,757521	367,507102	71,855	0,068719
4,770542	380,737305	72,557	0,074541
4,783496	393,727805	73,243	0,080256
4,796478	407,318670	73,951	0,086236
4,808475	419,226074	74,665	0,091476
4,821509	432,637163	75,370	0,097376
4,834503	445,326926	76,033	0,102960
4,847441	458,736905	76,730	0,108860
4,860517	472,268954	77,448	0,114814
4,873447	484,837757	78,127	0,120345
4,886482	497,767223	78,806	0,126034
4,899404	510,817649	79,526	0,131776
4,912474	523,446378	80,243	0,137333
4,925489	537,278054	80,953	0,143418
4,938392	550,629217	81,639	0,149293
4,951435	561,514560	82,371	0,154083
4,964411	574,503951	83,084	0,159798
4,977445	587,795188	83,794	0,165646
4,990482	600,724654	84,472	0,171335
5,003479	613,413308	85,171	0,176918
5,016427	626,343883	85,876	0,182607
5,029402	639,393200	86,585	0,188349
5,042441	652,262740	87,300	0,194012
5,055358	664,832653	87,992	0,199542
5,068432	678,363592	88,699	0,205496
5,081380	691,113281	89,414	0,211106
5,093425	703,742010	90,114	0,216663
5,093351	702,719949	90,799	0,216213
5,093393	703,561124	91,499	0,216583
5,093418	702,959650	92,198	0,216318
5,093389	702,779874	92,873	0,216239
5,093392	702,358176	93,578	0,216054
5,093387	702,598988	94,285	0,216160
5,093396	702,479137	94,987	0,216107
5,087420	697,367720	95,674	0,213858
5,074409	684,437145	96,378	0,208168
5,061380	671,266868	97,086	0,202374
5,048438	658,578214	97,805	0,196791
5,035386	644,866388	98,515	0,190757
5,022344	631,996848	99,193	0,185095
5,009464	619,367010	99,899	0,179538
4,996474	606,196733	100,597	0,173743
4,983423	592,725719	101,312	0,167815
4,970420	580,096990	101,985	0,162259
4,957404	567,407227	102,673	0,156675
4,944479	553,876287	103,389	0,150722
4,931431	540,526234	104,081	0,144848
4,918505	528,017356	104,781	0,139344
4,905470	513,944869	105,495	0,133152
4,893395	501,555842	106,216	0,127701
4,906446	513,763983	106,923	0,133072
4,919420	526,573597	107,608	0,138708
4,932416	539,683949	108,299	0,144477
4,945430	552,553489	109,023	0,150140
4,958464	566,205389	109,740	0,156146
4,971439	578,774192	110,428	0,161677
4,984424	592,004395	111,143	0,167498
4,997425	604,933860	111,864	0,173187
5,010431	617,623624	112,579	0,178771
5,023407	631,696112	113,268	0,184962
5,036403	643,783292	113,989	0,190281
5,049458	657,194380	114,707	0,196182
5,062396	670,725320	115,427	0,202135
5,075394	682,934570	116,147	0,207507
5,088382	696,645286	116,843	0,213540
5,101342	709,575861	117,564	0,219229
5,114373	722,625178	118,281	0,224971
5,127326	735,255016	118,994	0,230528
5,140404	748,003596	119,676	0,236138
5,153308	761,354759	120,395	0,242012
5,166317	773,622825	121,116	0,247410
5,179343	787,033913	121,834	0,253311
5,192363	799,242054	122,548	0,258683
5,205360	812,772994	123,244	0,264636
5,218344	825,462757	123,949	0,270220
5,231333	838,212447	124,629	0,275830
5,244308	851,321689	125,320	0,281598
5,257336	864,612926	126,002	0,287446
5,270332	876,880993	126,703	0,292844
5,283360	890,111195	127,390	0,298665
5,293354	900,755726	128,070	0,303349
5,293341	901,177424	128,803	0,303534
5,293330	900,335138	129,502	0,303164
5,293293	900,936612	130,209	0,303428
5,293363	901,237349	130,899	0,303561
5,293342	900,575950	131,614	0,303270
5,293310	900,695801	132,327	0,303322
5,293340	900,755726	133,039	0,303349
5,286297	894,502397	133,755	0,300597
5,273332	880,549760	134,425	0,294458
5,260275	867,620295	135,142	0,288769
5,247336	854,629794	135,860	0,283053
5,234342	841,941140	136,566	0,277470
5,221319	828,469016	137,253	0,271542
5,208309	814,938077	137,953	0,265589
5,195363	802,970748	138,673	0,260323
5,182352	789,981357	139,392	0,254608
5,169379	777,171742	140,079	0,248972
5,156406	762,797408	140,799	0,242647
5,143355	750,108754	141,513	0,237064
5,130429	737,780762	142,234	0,231640
5,117370	724,670410	142,960	0,225871
5,104427	711,800870	143,642	0,220208
5,091409	698,329856	144,362	0,214281
5,078345	684,857733	145,072	0,208354
5,065374	671,808416	145,777	0,202612
5,052359	658,397328	146,474	0,196711
5,039377	645,828525	147,195	0,191181
5,026329	632,598322	147,907	0,185359
5,013405	619,968484	148,614	0,179802
5,000482	606,136808	149,307	0,173716
4,987426	593,747781	150,023	0,168265
4,974485	580,457653	150,732	0,162417
4,961430	568,008700	151,448	0,156940
4,948435	555,139160	152,169	0,151277
4,935412	541,127708	152,867	0,145112
4,922384	527,836470	153,574	0,139264
4,909471	514,546342	154,290	0,133417
4,896458	502,217241	155,014	0,127992
4,883444	490,249911	155,740	0,122726
4,870474	476,297275	156,428	0,116587
4,857482	463,789506	157,152	0,111083
4,844436	449,235396	157,875	0,104680
4,831450	437,688654	158,602	0,099599
4,818454	424,938965	159,278	0,093989
4,805564	410,926403	159,993	0,087824
4,792517	399,259810	160,703	0,082690
4,779415	386,390270	161,422	0,077028
4,766612	373,160067	162,105	0,071207
4,753571	359,808904	162,835	0,065332
4,740520	346,578702	163,554	0,059511
4,727461	334,129750	164,267	0,054033
4,714533	321,320135	164,997	0,048397
4,701454	308,149858	165,682	0,042602
4,688551	295,461204	166,399	0,037019
4,675529	283,072177	167,113	0,031568
4,662604	270,202637	167,837	0,025905
4,649532	257,693759	168,528	0,020401
4,636490	244,162820	169,229	0,014448
4,623521	231,293279	169,939	0,008785
4,610542	219,264915	170,662	0,003493
4,597581	206,275524	171,402	-0,002223
4,584513	193,766646	172,098	-0,007727
4,571548	181,618430	172,806	-0,013072
4,558563	169,229403	173,522	-0,018523
4,545576	157,021262	174,229	-0,023895
4,532577	143,971946	174,921	-0,029636
4,519612	132,003507	175,643	-0,034902
4,506607	119,434703	176,371	-0,040433
4,493573	106,385387	177,098	-0,046174
4,480587	93,394886	177,822	-0,051890
4,467606	80,164684	178,509	-0,057711
4,454579	68,016468	179,238	-0,063057
4,441563	55,989213	179,952	-0,068349
4,428641	42,878862	180,688	-0,074117
4,415595	30,308949	181,401	-0,079648
4,402637	16,839045	182,092	-0,085575
4,389623	4,750755	182,820	-0,090894
4,376605	-4,811790	183,540	-0,095101
4,363628	-1,022061	184,259	-0,093434
4,350604	-0,421697	184,998	-0,093169
4,337616	0,000000	185,690	-0,092984
4,324652	-0,601474	186,412	-0,093249
4,311616	-0,661399	187,138	-0,093275
4,298609	-0,300737	187,857	-0,093116
4,293637	-0,361772	188,109	-0,093143

File: partial unload on sapphire-3,50ms
Quasi static measurement routine
Tip parameters (shape,radius, material...)
28.06.2022

Piezo position[nm]	MEMS displ.[nm]	Time[ms]	Cap [pf]
eoh
4,293621	0,000000	0,020	-0,093222
4,306594	-0,059925	0,641	-0,093249
4,319617	-0,240811	1,293	-0,093328
4,332553	-0,240811	1,945	-0,093328
4,345572	-0,119851	2,598	-0,093275
4,358611	-0,300737	3,249	-0,093354
4,371576	-0,240811	3,902	-0,093328
4,384639	0,179776	4,557	-0,093143
4,397569	11,486816	5,208	-0,088168
4,410614	23,333185	5,859	-0,082956
4,423616	36,865234	6,510	-0,077001
4,436590	49,434038	7,161	-0,071471
4,449548	62,062766	7,812	-0,065915
4,462589	75,774592	8,465	-0,059881
4,475611	87,802956	9,118	-0,054589
4,488571	101,573597	9,770	-0,048530
4,493579	107,046786	10,424	-0,046122
4,493605	106,686124	11,075	-0,046280
4,493556	106,746049	11,727	-0,046254
4,493590	106,926935	12,382	-0,046174
4,493549	106,865900	13,033	-0,046201
4,493584	106,805975	13,687	-0,046228
4,493603	107,226563	14,339	-0,046042
4,493583	107,588335	14,990	-0,045883
4,481522	95,860707	15,645	-0,051043
4,468625	82,810281	16,302	-0,056786
4,455556	69,820890	16,955	-0,062501
4,443549	56,650613	17,608	-0,068296
4,456549	69,038530	18,222	-0,062845
4,469569	81,909180	18,876	-0,057182
4,482610	94,477983	19,529	-0,051652
4,495563	108,068848	20,182	-0,045672
4,508565	120,637651	20,835	-0,040142
4,521571	132,845792	21,487	-0,034770
4,534541	145,595481	22,141	-0,029160
4,547596	159,126420	22,792	-0,023207
4,560568	171,995961	23,443	-0,017544
4,573535	184,745650	24,095	-0,011934
4,586499	198,216664	24,748	-0,006007
4,599523	209,643555	25,400	-0,000979
4,612531	223,595082	26,054	0,005160
4,625524	236,585582	26,707	0,010875
4,638590	249,996671	27,359	0,016776
4,651522	262,806286	28,012	0,022413
4,664521	275,675826	28,663	0,028075
4,677485	288,786177	29,315	0,033844
4,690510	301,354980	29,972	0,039374
4,693489	304,661976	30,628	0,040829
4,693487	304,121538	31,281	0,040591
4,693490	304,602051	31,933	0,040803
4,693504	304,542125	32,590	0,040776
4,693439	304,482200	33,244	0,040750
4,693502	304,361239	33,895	0,040697
4,693494	304,902788	34,546	0,040935
4,692523	304,361239	35,198	0,040697
4,679491	291,131037	35,851	0,034875
4,666519	279,825107	36,503	0,029901
4,653569	265,932395	37,155	0,023788
4,640507	252,281605	37,810	0,017782
4,627513	238,870517	38,463	0,011881
4,614554	226,301713	39,114	0,006351
4,601571	213,191362	39,767	0,000582
4,597560	208,018910	40,383	-0,001694
4,610560	220,528897	41,038	0,003811
4,623499	233,518288	41,690	0,009526
4,636601	246,327903	42,341	0,015162
4,649507	259,858842	42,993	0,021116
4,662517	272,668457	43,648	0,026752
4,675555	285,718883	44,301	0,032494
4,688470	299,189897	44,956	0,038421
4,701511	312,059437	45,608	0,044084
4,714521	325,109863	46,259	0,049826
4,727503	336,475719	46,910	0,054827
4,740433	350,848944	47,560	0,061151
4,753437	363,537598	48,213	0,066734
4,766440	376,528098	48,866	0,072450
4,779448	389,217862	49,520	0,078034
4,792490	402,267179	50,171	0,083775
4,805420	414,956942	50,826	0,089359
4,818487	428,547807	51,479	0,095339
4,831484	440,696023	52,134	0,100684
4,844424	453,385787	52,786	0,106268
4,857470	466,976651	53,441	0,112248
4,870436	479,425604	54,093	0,117725
4,883391	491,873446	54,746	0,123202
4,893398	503,240412	55,400	0,128204
4,893425	502,879750	56,055	0,128045
4,893393	503,179377	56,707	0,128177
4,893382	503,059526	57,358	0,128124
4,893459	502,939675	58,011	0,128071
4,893445	502,758789	58,669	0,127992
4,893452	502,999600	59,322	0,128098
4,893425	502,939675	59,976	0,128071
4,886470	497,346635	60,630	0,125610
4,873471	483,453924	61,285	0,119498
4,860471	470,103871	61,943	0,113624
4,847440	457,895730	62,598	0,108252
4,834452	444,965154	63,249	0,102563
4,821501	430,953702	63,903	0,096397
4,808543	417,783425	64,555	0,090603
4,795418	405,093661	65,205	0,085019
4,782540	392,524858	65,857	0,079489
4,769468	379,354581	66,509	0,073694
4,756501	366,604892	67,160	0,068084
4,743538	353,133878	67,811	0,062157
4,755547	363,057085	68,429	0,066523
4,768558	376,588024	69,081	0,072477
4,781485	389,036976	69,737	0,077954
4,794469	402,448065	70,388	0,083855
4,807493	415,197754	71,038	0,089465
4,820430	428,607733	71,689	0,095365
4,833440	441,718084	72,348	0,101134
4,846461	454,647550	73,002	0,106823
4,859500	467,337314	73,656	0,112406
4,872485	480,567516	74,308	0,118228
4,885435	493,858754	74,962	0,124076
4,898417	506,848145	75,613	0,129791
4,911451	519,898571	76,265	0,135533
4,924402	532,648260	76,916	0,141143
4,937396	544,555664	77,566	0,146382
4,950417	558,206454	78,220	0,152389
4,963396	571,256880	78,873	0,158131
4,976440	584,247381	79,526	0,163847
4,989418	597,296697	80,179	0,169588
5,002384	609,625799	80,832	0,175013
5,015426	623,336515	81,486	0,181046
5,028370	635,484730	82,136	0,186391
5,041429	648,475231	82,794	0,192107
5,054359	660,923074	83,444	0,197584
5,067388	674,093350	84,096	0,203379
5,080338	686,783114	84,754	0,208962
5,093325	699,773615	85,407	0,214678
5,093379	701,035378	86,059	0,215233
5,093337	700,435014	86,713	0,214969
5,093396	700,915527	87,368	0,215181
5,093414	700,554865	88,021	0,215022
5,093319	700,795676	88,674	0,215128
5,093379	700,013317	89,326	0,214784
5,093449	701,156339	89,979	0,215287
5,089380	697,246760	90,634	0,213566
5,076342	683,476119	91,285	0,207507
5,063415	671,266868	91,939	0,202135
5,050332	657,795854	92,590	0,196208
5,037392	644,866388	93,242	0,190519
5,024413	631,876998	93,901	0,184804
5,011411	619,547896	94,557	0,179379
4,998396	605,776145	95,209	0,173319
4,985414	592,125355	95,862	0,167313
4,972436	579,435591	96,515	0,161729
4,959416	566,746937	97,166	0,156146
4,946428	553,515625	97,820	0,150325
4,933375	540,646085	98,475	0,144662
4,920423	527,294922	99,129	0,138788
4,907420	515,327592	99,782	0,133522
4,894418	500,713556	100,434	0,127092
4,904409	509,494851	101,065	0,130956
4,917436	522,665128	101,717	0,136750
4,930501	535,594593	102,369	0,142439
4,943399	547,862660	103,020	0,147837
4,956399	560,612349	103,673	0,153447
4,969477	574,384100	104,331	0,159507
4,982377	586,952903	104,985	0,165037
4,995372	600,483842	105,639	0,170991
5,008419	613,353382	106,293	0,176653
5,021418	625,742409	106,944	0,182104
5,034399	639,995783	107,600	0,188376
5,047413	652,985174	108,250	0,194091
5,060376	665,734863	108,905	0,199701
5,073390	679,024991	109,559	0,205549
5,086323	692,075417	110,220	0,211291
5,099330	705,426580	110,878	0,217166
5,112413	717,814498	111,530	0,222616
5,125400	730,624112	112,184	0,228252
5,138332	743,373801	112,836	0,233862
5,151350	756,484153	113,489	0,239631
5,164389	769,955167	114,143	0,245558
5,177358	782,523970	114,796	0,251088
5,190338	795,032848	115,448	0,256592
5,203320	808,563787	116,100	0,262546
5,216361	821,373402	116,752	0,268182
5,229336	834,002131	117,404	0,273739
5,242305	846,811745	118,057	0,279375
5,255300	860,102983	118,713	0,285223
5,268310	872,251199	119,374	0,290568
5,281275	885,300515	120,030	0,296310
5,293295	898,231090	120,686	0,302000
5,293227	898,711603	121,340	0,302211
5,293307	898,771529	121,991	0,302237
5,293295	898,892489	122,644	0,302291
5,293350	898,050204	123,296	0,301920
5,293329	898,591752	123,950	0,302158
5,293270	898,110130	124,605	0,301946
5,293349	898,110130	125,260	0,301946
5,288331	894,261586	125,914	0,300253
5,275334	882,234331	126,567	0,294961
5,262319	868,221768	127,227	0,288795
5,249327	854,390092	127,881	0,282709
5,236348	842,361728	128,543	0,277417
5,223274	829,191451	129,195	0,271622
5,210410	816,081099	129,847	0,265854
5,197359	802,369274	130,500	0,259820
5,184420	789,740545	131,152	0,254264
5,171359	776,990856	131,806	0,248654
5,158378	763,941539	132,459	0,242912
5,145377	751,311701	133,112	0,237355
5,132374	738,682972	133,766	0,231798
5,119390	724,730336	134,418	0,225659
5,106371	711,619984	135,070	0,219891
5,093397	698,089045	135,726	0,213937
5,080377	685,340465	136,393	0,208328
5,067380	672,349964	137,054	0,202612
5,054457	659,841087	137,707	0,197108
5,041445	645,828525	138,362	0,190942
5,028399	633,439498	139,014	0,185491
5,015361	619,547896	139,666	0,179379
5,002414	606,438654	140,317	0,173611
4,989440	594,890803	140,974	0,168530
4,976360	580,819425	141,627	0,162338
4,963448	568,309437	142,279	0,156834
4,950415	554,598722	142,937	0,150801
4,937467	541,548295	143,595	0,145059
4,924487	528,678755	144,257	0,139396
4,911476	515,809215	144,913	0,133734
4,898429	502,698864	145,567	0,127965
4,885465	489,046964	146,219	0,121958
4,872474	476,539196	146,872	0,116455
4,859425	463,307884	147,525	0,110633
4,846507	450,679155	148,176	0,105077
4,833494	437,208141	148,832	0,099149
4,820563	423,856978	149,485	0,093275
4,807526	412,551048	150,141	0,088300
4,794470	398,237749	150,803	0,082002
4,781490	384,586958	151,462	0,075996
4,768527	372,378817	152,114	0,070625
4,755508	359,869940	152,769	0,065121
4,742560	346,518777	153,421	0,059246
4,729588	334,431596	154,075	0,053928
4,716500	321,441096	154,728	0,048212
4,703576	309,052069	155,402	0,042761
4,690526	295,340243	156,054	0,036728
4,677577	282,711515	156,707	0,031171
4,664517	270,383523	157,359	0,025747
4,651519	256,972434	158,016	0,019846
4,638558	244,222745	158,670	0,014236
4,625643	231,653942	159,327	0,008706
4,612535	219,325950	159,981	0,003281
4,599559	206,876998	160,638	-0,002196
4,586511	194,848633	161,297	-0,007489
4,573589	182,339755	161,961	-0,012993
4,560612	171,395597	162,614	-0,017808
4,547598	156,480824	163,272	-0,024371
4,534562	144,091797	163,923	-0,029822
4,521634	132,245428	164,574	-0,035034
4,508623	119,675515	165,226	-0,040565
4,495588	106,265536	165,879	-0,046465
4,482541	93,816584	166,531	-0,051943
4,469589	80,826083	167,193	-0,057659
4,456577	67,655806	167,857	-0,063454
4,443580	55,868253	168,513	-0,068640
4,430624	42,638050	169,167	-0,074461
4,417615	31,212269	169,820	-0,079489
4,404630	16,839045	170,472	-0,085813
4,391603	4,149281	171,126	-0,091396
4,378628	-0,721325	171,777	-0,093540
4,365598	-0,180886	172,429	-0,093302
4,352638	-0,360662	173,081	-0,093381
4,339597	-0,902211	173,734	-0,093619
4,326610	0,000000	174,385	-0,093222
4,313686	-0,119851	175,036	-0,093275
4,300666	-0,180886	175,689	-0,093302
4,293618	-0,480513	176,043	-0,093434