Folder: Nanoindentation_Analysis/Nanoindentation Datenauswertung/data (part 7)

File: test
Quasi static measurement routine
Tip parameters (shape,radius, material...)
02.09.2022

Piezo position[nm]	MEMS displ.[nm]	Time[ms]	Cap [pf]	Temp [°C]	Rh [%]
eoh
1,367984	-0,325112	0,187	-0,134356	22,500000	46,420000
1,386058	-0,274812	1,091	-0,134336	22,500000	46,420000
1,404017	-0,041712	1,994	-0,134243	22,490000	46,410000
1,422072	-0,142313	2,901	-0,134283	22,490000	46,410000
1,440057	-0,067476	3,804	-0,134253	22,510000	46,440000
1,458009	-0,341061	4,706	-0,134362	22,510000	46,440000
1,476032	-0,224511	5,608	-0,134316	22,500000	46,475000
1,494021	-0,133725	6,510	-0,134280	22,500000	46,475000
1,512006	-0,109189	7,415	-0,134270	22,500000	46,460000
1,530040	-0,133725	8,318	-0,134280	22,500000	46,460000
1,548076	0,198748	9,222	-0,134147	22,500000	46,460000
1,566038	-0,184026	10,124	-0,134300	22,490000	46,435000
1,584029	-0,316524	11,026	-0,134353	22,490000	46,435000
1,602046	-0,366824	11,933	-0,134373	22,500000	46,435000
1,620026	-0,133725	12,836	-0,134280	22,500000	46,435000
1,637998	-0,257636	13,737	-0,134329	22,500000	46,435000
1,656086	-0,391361	14,639	-0,134382	22,500000	46,435000
1,674009	-0,175438	15,542	-0,134296	22,490000	46,410000
1,692051	-0,457610	16,444	-0,134409	22,490000	46,410000
1,709995	-0,374185	17,345	-0,134375	22,510000	46,465000
1,728020	-0,325112	18,253	-0,134356	22,510000	46,465000
1,745984	-0,408537	19,155	-0,134389	22,510000	46,465000
1,763940	-0,307936	20,057	-0,134349	22,510000	46,465000
1,782033	-0,399949	20,959	-0,134386	22,510000	46,465000
1,799947	-0,532447	21,863	-0,134438	22,510000	46,425000
1,818064	-0,482147	22,765	-0,134418	22,510000	46,425000
1,836016	-32,145591	23,665	-0,147021	22,500000	46,435000
1,853946	-13,863262	24,566	-0,139744	22,500000	46,435000
1,871958	6,033586	25,467	-0,131825	22,500000	46,435000
1,890039	23,069449	26,369	-0,125045	22,500000	46,435000
1,908012	40,439011	27,274	-0,118132	22,500000	46,435000
1,925989	58,015910	28,175	-0,111136	22,510000	46,465000
1,943999	75,975581	29,078	-0,103988	22,510000	46,465000
1,962006	94,008863	29,980	-0,096811	22,510000	46,425000
1,980016	113,813697	30,884	-0,088929	22,510000	46,425000
1,997937	129,960103	31,785	-0,082502	22,510000	46,425000
2,016016	149,407928	32,686	-0,074762	22,510000	46,425000
2,033970	166,178794	33,590	-0,068087	22,500000	46,450000
2,051974	184,129878	34,496	-0,060943	22,500000	46,450000
2,070028	202,229409	35,397	-0,053739	22,500000	46,460000
2,087971	222,183918	36,298	-0,045797	22,500000	46,460000
2,106006	238,430924	37,199	-0,039331	22,500000	46,460000
2,123941	257,927823	38,101	-0,031571	22,500000	46,380000
2,142028	275,396759	39,006	-0,024619	22,500000	46,380000
2,159950	293,114744	39,906	-0,017567	22,510000	46,440000
2,177976	310,526019	40,808	-0,010637	22,510000	46,440000
2,195980	328,601013	41,711	-0,003443	22,500000	46,460000
2,213993	346,543509	42,615	0,003698	22,500000	46,460000
2,231951	365,840433	43,518	0,011378	22,500000	46,460000
2,250016	384,905484	44,422	0,018966	22,500000	46,460000
2,267988	400,962331	45,327	0,025356	22,510000	46,425000
2,285987	418,779689	46,228	0,032448	22,510000	46,425000
2,303930	438,791860	47,133	0,040413	22,510000	46,425000
2,322030	456,219084	48,036	0,047349	22,510000	46,440000
2,340013	473,679432	48,939	0,054298	22,510000	46,440000
2,357935	490,941033	49,841	0,061168	22,510000	46,440000
2,375908	510,603555	50,744	0,068994	22,510000	46,440000
2,393993	526,700887	51,645	0,075400	22,510000	46,455000
2,411949	546,879907	52,547	0,083432	22,510000	46,455000
2,429958	562,944115	53,450	0,089825	22,510000	46,455000
2,447999	582,274164	54,351	0,097519	22,510000	46,455000
2,466014	599,344378	55,255	0,104313	22,510000	46,455000
2,484011	617,461085	56,160	0,111523	22,510000	46,400000
2,501954	636,949395	57,062	0,119279	22,510000	46,400000
2,520007	653,612300	57,964	0,125911	22,510000	46,400000
2,537971	672,934987	58,867	0,133602	22,510000	46,400000
2,556022	689,248243	59,773	0,140094	22,500000	46,410000
2,573984	707,772260	60,676	0,147467	22,500000	46,410000
2,591984	725,449759	61,577	0,154502	22,500000	46,410000
2,610016	743,383666	62,477	0,161640	22,500000	46,410000
2,627972	763,453498	63,380	0,169628	22,510000	46,465000
2,646002	781,513770	64,281	0,176816	22,510000	46,465000
2,663966	797,569390	65,182	0,183206	22,510000	46,465000
2,682036	816,800065	66,085	0,190860	22,510000	46,440000
2,700017	833,936528	66,987	0,197680	22,510000	46,440000
2,717935	852,378347	67,889	0,205020	22,510000	46,440000
2,736006	870,054619	68,794	0,212055	22,510000	46,440000
2,753976	889,593230	69,695	0,219832	22,500000	46,435000
2,771945	907,053578	70,596	0,226781	22,500000	46,435000
2,789984	924,256291	71,499	0,233627	22,490000	46,395000
2,807950	943,652589	72,400	0,241347	22,490000	46,395000
2,825920	962,019571	73,304	0,248657	22,490000	46,395000
2,843949	979,347421	74,207	0,255554	22,510000	46,465000
2,861985	996,267961	75,108	0,262288	22,510000	46,465000
2,867975	1003,713637	76,010	0,265251	22,490000	46,450000
2,857903	993,442555	76,914	0,261164	22,490000	46,450000
2,839918	974,868238	77,816	0,253771	22,500000	46,420000
2,821985	956,974815	78,718	0,246649	22,500000	46,420000
2,803981	939,822403	79,624	0,239823	22,520000	46,440000
2,785973	921,613684	80,525	0,232576	22,520000	46,440000
2,767941	901,136542	81,428	0,224426	22,510000	46,425000
2,749948	882,752385	82,330	0,217109	22,510000	46,425000
2,731997	865,025813	83,233	0,210054	22,510000	46,425000
2,713935	846,858806	84,134	0,202823	22,500000	46,410000
2,695923	827,645307	85,038	0,195176	22,500000	46,410000
2,677971	811,222862	85,940	0,188640	22,500000	46,410000
2,659946	793,605479	86,842	0,181628	22,500000	46,410000
2,641924	774,714638	87,744	0,174110	22,510000	46,425000
2,623965	754,860729	88,645	0,166208	22,510000	46,425000
2,606010	736,676547	89,548	0,158971	22,510000	46,425000
2,587996	718,676390	90,448	0,151807	22,510000	46,425000
2,569977	700,841856	91,352	0,144708	22,510000	46,400000
2,551920	683,938491	92,255	0,137981	22,510000	46,400000
2,533985	665,322462	93,158	0,130572	22,510000	46,400000
2,515960	645,177793	94,060	0,122554	22,510000	46,400000
2,497880	626,877061	94,962	0,115271	22,510000	46,400000
2,480019	609,458425	95,867	0,108338	22,500000	46,450000
2,462025	591,091444	96,769	0,101028	22,500000	46,450000
2,443968	574,296041	97,670	0,094343	22,510000	46,415000
2,426022	554,067947	98,574	0,086292	22,510000	46,415000
2,407929	535,951241	99,475	0,079082	22,500000	46,420000
2,390008	519,786432	100,376	0,072648	22,500000	46,420000
2,372013	499,849099	101,281	0,064713	22,500000	46,420000
2,354020	481,848942	102,184	0,057549	22,500000	46,420000
2,336008	464,014408	103,085	0,050451	22,500000	46,420000
2,317965	446,853408	103,987	0,043621	22,510000	46,425000
2,300013	426,890311	104,888	0,035676	22,510000	46,425000
2,282043	408,765016	105,791	0,028462	22,500000	46,420000
2,263977	392,908144	106,694	0,022151	22,500000	46,420000
2,245994	374,575514	107,598	0,014854	22,500000	46,410000
2,227986	356,424456	108,499	0,007630	22,500000	46,410000
2,210038	336,995034	109,400	-0,000103	22,500000	46,450000
2,192009	319,169088	110,300	-0,007197	22,500000	46,450000
2,173981	301,649851	111,202	-0,014170	22,500000	46,450000
2,156031	282,368876	112,106	-0,021844	22,510000	46,455000
2,138006	264,118444	113,009	-0,029107	22,510000	46,455000
2,119954	246,267961	113,913	-0,036212	22,510000	46,455000
2,102012	228,466552	114,814	-0,043297	22,510000	46,455000
2,083983	211,745986	115,717	-0,049952	22,510000	46,440000
2,065985	193,877100	116,618	-0,057063	22,510000	46,440000
2,048043	176,076918	117,524	-0,064148	22,510000	46,415000
2,030005	158,225208	118,426	-0,071253	22,510000	46,415000
2,011992	138,270699	119,328	-0,079195	22,510000	46,440000
1,994006	122,040868	120,229	-0,085654	22,510000	46,440000
1,976036	103,050654	121,132	-0,093212	22,510000	46,440000
1,958000	84,019953	122,033	-0,100787	22,510000	46,440000
1,940012	66,035745	122,934	-0,107944	22,510000	46,440000
1,922057	46,730233	123,839	-0,115628	22,500000	46,450000
1,904017	27,881105	124,741	-0,123130	22,500000	46,450000
1,886029	9,407389	125,645	-0,130482	22,500000	46,410000
1,868026	-8,809919	126,545	-0,137733	22,500000	46,410000
1,850049	-27,126600	127,446	-0,145023	22,500000	46,435000
1,832011	-44,271651	128,348	-0,151847	22,500000	46,435000
1,813983	-62,654582	129,251	-0,159163	22,500000	46,435000
1,796001	-80,015556	130,155	-0,166073	22,520000	46,455000
1,778070	-99,695254	131,057	-0,173905	22,520000	46,455000
1,760009	-119,300114	131,960	-0,181708	22,500000	46,435000
1,742047	-136,710162	132,864	-0,188637	22,500000	46,435000
1,724055	-153,979124	133,766	-0,195510	22,500000	46,435000
1,706064	-171,473824	134,667	-0,202473	22,500000	46,435000
1,687996	-189,923004	135,571	-0,209816	22,510000	46,440000
1,670003	-207,674113	136,474	-0,216881	22,510000	46,440000
1,652033	-228,542615	137,376	-0,225187	22,510000	46,440000
1,634052	-246,551360	138,276	-0,232354	22,510000	46,440000
1,615980	-263,821549	139,180	-0,239228	22,510000	46,440000
1,598022	-280,958013	140,083	-0,246048	22,510000	46,455000
1,580028	-0,274812	140,985	-0,134336	22,510000	46,455000
1,561990	-0,199974	141,885	-0,134306	22,510000	46,465000
1,544065	0,224511	142,786	-0,134137	22,510000	46,465000
1,526087	-0,191387	143,688	-0,134303	22,510000	46,465000
1,508056	-0,424486	144,591	-0,134396	22,510000	46,465000
1,490039	0,066249	145,494	-0,134200	22,510000	46,425000
1,472103	0,099374	146,399	-0,134187	22,510000	46,425000
1,454049	-0,307936	147,304	-0,134349	22,510000	46,425000
1,436068	-0,175438	148,206	-0,134296	22,510000	46,425000
1,418053	-0,166850	149,110	-0,134293	22,510000	46,425000
1,400117	-0,083425	150,011	-0,134260	22,510000	46,425000
1,382043	-0,217150	150,914	-0,134313	22,510000	46,425000
1,368026	-0,100601	151,617	-0,134267	22,520000	46,415000

File: test partial unload on saphire-2
Quasi static measurement routine
Tip parameters (shape,radius, material...)
09.05.2022

Piezo position[nm]	MEMS displ.[nm]	Time[ms]
eoh
2,819923	0,000000	0,00
2,831990	5,652965	0,25
2,843966	11,967330	0,55
2,855992	20,747514	0,85
2,867987	31,031383	1,15
2,879965	40,292081	1,46
2,891987	51,718972	1,76
2,904004	62,062766	2,06
2,915963	72,045898	2,36
2,927968	83,111017	2,66
2,939990	92,492676	2,96
2,951990	102,836470	3,26
2,963997	114,383212	3,56
2,975992	125,328480	3,87
2,987935	135,130726	4,17
2,999978	147,159091	4,47
3,011948	157,562811	4,77
3,024005	167,785645	5,07
3,035948	179,092685	5,37
3,047904	189,436479	5,67
3,059945	201,283958	5,97
3,071921	213,492099	6,28
3,083938	224,677069	6,58
3,095930	237,366832	6,88
3,107918	249,815785	7,18
3,119963	261,061790	7,48
3,131861	274,051181	7,78
3,143915	285,657848	8,08
3,151911	298,286577	8,38
3,151893	298,407537	8,68
3,151914	298,768200	8,98
3,151911	298,226651	9,29
3,151880	298,106800	9,59
3,151923	297,445401	9,89
3,151850	297,986950	10,19
3,151899	297,925914	10,49
3,151950	297,746138	10,79
3,151864	298,226651	11,09
3,151876	297,625178	11,39
3,151937	297,925914	11,70
3,151924	297,505327	12,00
3,151918	297,746138	12,30
3,151851	297,925914	12,60
3,151891	298,106800	12,90
3,151920	298,647239	13,20
3,143988	293,836559	13,50
3,131876	280,726207	13,80
3,119890	268,518066	14,10
3,107897	256,972434	14,40
3,095925	243,561346	14,70
3,083909	231,773793	15,00
3,071964	219,565652	15,30
3,071922	211,327015	15,58
3,083919	223,774858	15,88
3,095962	236,284846	16,18
3,107943	249,093350	16,48
3,119922	260,820978	16,78
3,131977	272,186834	17,08
3,143918	284,816673	17,38
3,155954	296,724077	17,68
3,167942	308,571555	17,98
3,179928	320,778587	18,29
3,191907	333,468350	18,59
3,203899	345,015092	18,89
3,215895	357,403010	19,19
3,227944	370,814098	19,49
3,239934	383,022239	19,79
3,251945	395,891779	20,09
3,263912	408,761319	20,39
3,275910	421,511009	20,69
3,287864	435,342685	20,99
3,299926	448,273260	21,29
3,311910	461,503462	21,59
3,323848	474,492853	21,89
3,335933	487,302468	22,19
3,347881	499,631570	22,49
3,359908	513,944869	22,79
3,371833	526,272860	23,09
3,383863	539,984686	23,39
3,395871	553,034002	23,70
3,407824	565,182218	24,00
3,419861	578,834118	24,30
3,431813	591,944469	24,60
3,443875	604,513272	24,90
3,455844	617,562589	25,20
3,467877	630,853826	25,50
3,479870	643,723366	25,80
3,483863	652,202814	26,11
3,483827	652,563477	26,41
3,483819	652,262740	26,71
3,483825	652,503551	27,01
3,483800	652,503551	27,31
3,483842	652,563477	27,61
3,483913	652,443626	27,91
3,483791	652,503551	28,21
3,483862	652,082963	28,52
3,483865	652,623402	28,82
3,483830	652,262740	29,11
3,483842	652,142889	29,41
3,483887	652,383700	29,71
3,483837	651,963113	30,02
3,483841	652,864213	30,32
3,483830	652,082963	30,62
3,483842	652,082963	30,92
3,471881	643,542480	31,22
3,459865	630,613015	31,52
3,447825	617,082076	31,82
3,435850	603,911799	32,12
3,423845	590,801447	32,42
3,411815	577,991832	32,73
3,399838	564,941406	33,03
3,387906	551,831055	33,33
3,375884	538,240190	33,63
3,363879	524,948952	33,93
3,351853	511,479048	34,23
3,339845	498,428622	34,53
3,327858	485,919744	34,83
3,315934	472,749467	35,13
3,323871	472,809393	35,39
3,335916	485,859819	35,69
3,347854	498,308771	35,99
3,359897	511,418013	36,29
3,371830	525,009988	36,59
3,383875	538,180265	36,89
3,395928	551,410467	37,19
3,407818	564,640669	37,49
3,419812	577,691096	37,79
3,431893	590,620561	38,09
3,443834	603,611062	38,39
3,455831	617,382812	38,69
3,467866	630,613015	38,99
3,479841	643,362704	39,29
3,491871	656,712757	39,60
3,503779	669,583407	39,90
3,515840	682,692649	40,20
3,527856	696,224698	40,50
3,539771	708,974387	40,80
3,551854	721,963778	41,10
3,563914	735,134055	41,40
3,575879	748,364258	41,70
3,587818	761,535645	42,00
3,599863	774,885698	42,30
3,611793	787,695312	42,60
3,623894	800,383967	42,91
3,635835	814,216752	43,20
3,647828	827,627841	43,51
3,659826	839,955833	43,81
3,671800	853,186035	44,11
3,683859	866,296387	44,41
3,695814	879,046076	44,71
3,707845	892,636941	45,01
3,719814	905,747292	45,31
3,731835	918,857644	45,61
3,743831	931,306596	45,91
3,755902	945,498935	46,21
3,767849	957,647150	46,51
3,779892	970,817427	46,82
3,791836	984,348366	47,12
3,803822	997,579679	47,42
3,815851	1010,389293	47,72
3,815802	1014,718350	48,02
3,815802	1014,538574	48,32
3,815772	1014,357688	48,62
3,815753	1014,116877	48,92
3,815828	1014,718350	49,22
3,815839	1014,658425	49,52
3,815752	1014,778276	49,82
3,815833	1014,839311	50,12
3,815845	1014,778276	50,43
3,815921	1014,297763	50,73
3,815768	1013,997026	51,03
3,815832	1014,297763	51,33
3,815811	1014,417614	51,63
3,815798	1014,297763	51,93
3,815817	1014,538574	52,23
3,815820	1014,778276	52,53
3,811844	1014,357688	52,83
3,799832	1001,488148	53,13
3,787837	988,077060	53,43
3,775810	974,966708	53,73
3,763771	962,037243	54,03
3,751832	948,986816	54,34
3,739798	935,095215	54,64
3,727863	922,706188	54,94
3,715798	909,776722	55,24
3,703882	896,425559	55,54
3,691830	883,135431	55,84
3,679823	869,784268	56,14
3,667745	856,734952	56,44
3,655831	843,744451	56,74
3,643860	830,333363	57,04
3,631820	817,282937	57,34
3,619837	803,932884	57,64
3,607807	790,521795	57,95
3,595842	777,772106	58,25
3,583831	764,902566	58,55
3,571769	751,853249	58,85
3,559845	738,862749	59,15
3,547814	725,090998	59,45
3,535821	712,161532	59,75
3,523789	698,930220	60,05
3,511829	685,820978	60,35
3,499815	672,710627	60,65
3,487881	659,780051	60,95
3,475825	646,670810	61,25
3,463855	633,439498	61,55
3,451860	620,450107	61,85
3,439829	606,256658	62,16
3,427819	594,048517	62,45
3,415838	580,637429	62,76
3,403857	567,227450	63,05
3,391893	554,718572	63,35
3,379905	542,028809	63,66
3,367913	528,016246	63,96
3,355875	514,726119	64,26
3,343827	501,736728	64,56
3,331918	489,407626	64,86
3,319903	475,034402	65,16
3,307906	463,067072	65,47
3,295946	450,076571	65,77
3,283845	437,147106	66,07
3,271922	423,375355	66,37
3,259879	410,265004	66,67
3,247922	397,335538	66,97
3,235882	385,127397	67,27
3,223865	371,596458	67,57
3,211895	359,327282	67,87
3,199913	345,857377	68,17
3,188001	332,806951	68,47
3,175945	320,538885	68,78
3,163877	309,352805	69,08
3,151836	296,784002	69,38
3,139963	283,914462	69,68
3,127887	272,066983	69,98
3,115906	260,820978	70,28
3,103962	249,033425	70,58
3,091899	236,284846	70,88
3,079891	223,895819	71,18
3,067929	212,048340	71,48
3,055970	199,720348	71,79
3,043966	187,512207	72,09
3,031925	175,844505	72,39
3,019981	163,937100	72,69
3,007947	153,352495	72,99
2,995905	143,008700	73,29
2,983907	131,402033	73,59
2,971946	120,697576	73,89
2,959983	110,534668	74,19
2,947956	99,950062	74,49
2,935937	89,064719	74,79
2,923945	79,502175	75,09
2,911944	69,580078	75,39
2,899976	59,596946	75,69
2,888009	48,952415	76,00
2,875972	38,909357	76,30
2,863909	28,264826	76,60
2,851941	19,303755	76,90
2,840012	10,824308	77,20
2,827978	3,006259	77,50
2,819907	-0,301847	77,70