Folder: Nanoindentation_Analysis/Nanoindentation Datenauswertung/data (part 3)

File: AR-SA-600-1-600-3,5um-diff_LF-4x4-2
Quasi static measurement routine
Tip parameters (shape,radius, material...)
01.09.2022

Piezo position[nm]	MEMS displ.[nm]	Time[ms]	Cap [pf]	Temp [°C]	Rh [%]
eoh

X-Pos [um]	Y-Pos [um]
0,000507	0,000268

POC
1,772016
1,279059	0,066249	1,215	-0,134366	22,530000	47,585000
1,287061	0,415898	2,417	-0,134227	22,530000	47,585000
1,295049	-0,116550	3,621	-0,134438	22,520000	47,570000
1,303041	-0,041712	4,824	-0,134409	22,520000	47,570000
1,311019	0,149674	6,026	-0,134333	22,520000	47,570000
1,319020	0,132498	7,229	-0,134339	22,510000	47,585000
1,327063	-0,257636	8,430	-0,134495	22,510000	47,585000
1,335046	-0,365598	9,631	-0,134538	22,520000	47,570000
1,343049	-0,175438	10,833	-0,134462	22,520000	47,570000
1,351047	-0,083425	12,035	-0,134425	22,520000	47,585000
1,359025	0,033125	13,238	-0,134379	22,520000	47,570000
1,367047	-0,083425	14,440	-0,134425	22,520000	47,570000
1,375043	-0,166850	15,643	-0,134458	22,520000	47,570000
1,383079	-0,074837	16,848	-0,134422	22,520000	47,570000
1,391053	0,191387	18,051	-0,134316	22,510000	47,545000
1,399014	0,074837	19,253	-0,134362	22,510000	47,545000
1,407024	0,049073	20,455	-0,134373	22,510000	47,545000
1,415037	-0,158262	21,656	-0,134455	22,520000	47,585000
1,422989	-0,241687	22,859	-0,134488	22,520000	47,585000
1,431068	0,024537	24,061	-0,134382	22,520000	47,610000
1,439043	-0,141086	25,263	-0,134448	22,520000	47,610000
1,447052	0,123911	26,463	-0,134343	22,520000	47,610000
1,454978	-0,041712	27,665	-0,134409	22,520000	47,555000
1,463065	0,041712	28,866	-0,134375	22,520000	47,555000
1,471013	0,033125	30,069	-0,134379	22,520000	47,570000
1,479049	-0,182799	31,271	-0,134465	22,530000	47,570000
1,487037	-0,050300	32,475	-0,134412	22,530000	47,570000
1,495041	0,000000	33,677	-0,134392	22,520000	47,585000
1,503034	0,099374	34,880	-0,134353	22,520000	47,585000
1,511045	0,240460	36,080	-0,134296	22,520000	47,585000
1,519048	-0,107962	37,282	-0,134435	22,520000	47,585000
1,527035	-0,041712	38,484	-0,134409	22,520000	47,585000
1,535037	0,099374	39,687	-0,134353	22,530000	47,595000
1,542994	0,024537	40,889	-0,134382	22,530000	47,595000
1,551019	-0,066249	42,091	-0,134418	22,510000	47,585000
1,559035	-0,050300	43,297	-0,134412	22,520000	47,595000
1,567053	0,123911	44,500	-0,134343	22,520000	47,595000
1,575006	-0,307936	45,703	-0,134515	22,520000	47,585000
1,583008	0,033125	46,903	-0,134379	22,520000	47,585000
1,591018	0,407310	48,105	-0,134230	22,520000	47,585000
1,599015	-0,365598	49,308	-0,134538	22,520000	47,595000
1,607035	0,049073	50,509	-0,134373	22,520000	47,595000
1,615050	-0,033125	51,712	-0,134405	22,520000	47,595000
1,623062	-0,199974	52,914	-0,134472	22,520000	47,595000
1,631036	-0,066249	54,117	-0,134418	22,530000	47,585000
1,639008	-0,141086	55,319	-0,134448	22,530000	47,585000
1,647048	-0,099374	56,522	-0,134432	22,530000	47,585000
1,655070	-0,175438	57,728	-0,134462	22,510000	47,585000
1,663009	-0,316524	58,931	-0,134518	22,510000	47,585000
1,671033	-97,192505	60,133	-0,173075	22,510000	47,585000
1,679046	-88,899085	61,337	-0,169774	22,520000	47,585000
1,687029	-80,820362	62,539	-0,166559	22,520000	47,585000
1,695062	-73,740283	63,739	-0,163741	22,520000	47,585000
1,702996	-65,121751	64,941	-0,160311	22,520000	47,585000
1,711011	-56,960830	66,142	-0,157062	22,520000	47,570000
1,718994	-49,863576	67,345	-0,154238	22,520000	47,570000
1,726992	-41,187382	68,550	-0,150785	22,520000	47,570000
1,735031	-33,666870	69,752	-0,147792	22,520000	47,585000
1,742980	-26,835839	70,954	-0,145073	22,520000	47,585000
1,751007	-18,715403	72,158	-0,141841	22,520000	47,585000
1,759030	-10,430571	73,362	-0,138543	22,530000	47,570000
1,767019	-2,626659	74,564	-0,135438	22,530000	47,570000
1,775030	6,150135	75,765	-0,131944	22,530000	47,570000
1,782964	13,205677	76,965	-0,129136	22,530000	47,570000
1,791020	21,923583	78,171	-0,125667	22,520000	47,570000
1,798991	28,596351	79,372	-0,123011	22,520000	47,595000
1,807063	36,840698	80,576	-0,119729	22,520000	47,595000
1,815013	44,620073	81,778	-0,116633	22,520000	47,595000
1,823028	52,598196	82,979	-0,113458	22,520000	47,595000
1,831033	60,384932	84,180	-0,110359	22,530000	47,585000
1,839023	69,426723	85,383	-0,106760	22,510000	47,555000
1,846996	77,347185	86,585	-0,103608	22,510000	47,555000
1,855045	84,618650	87,786	-0,100714	22,530000	47,585000
1,863043	93,161118	88,989	-0,097314	22,530000	47,585000
1,871015	100,608021	90,189	-0,094350	22,530000	47,530000
1,879038	108,154297	91,391	-0,091347	22,510000	47,595000
1,886982	116,273506	92,592	-0,088115	22,510000	47,595000
1,895012	124,949700	93,794	-0,084662	22,510000	47,595000
1,902965	131,831030	94,997	-0,081923	22,510000	47,595000
1,911009	139,842278	96,199	-0,078735	22,530000	47,570000
1,919003	147,813040	97,400	-0,075563	22,520000	47,555000
1,926997	156,438933	98,603	-0,072129	22,520000	47,555000
1,935020	163,934909	99,803	-0,069146	22,510000	47,610000
1,942980	172,020994	101,005	-0,065928	22,510000	47,610000
1,951040	179,359934	102,207	-0,063007	22,520000	47,585000
1,959006	188,525636	103,409	-0,059359	22,520000	47,585000
1,957968	187,195744	104,612	-0,059888	22,520000	47,585000
1,949994	180,065366	105,814	-0,062726	22,520000	47,585000
1,942022	170,657977	107,018	-0,066470	22,520000	47,585000
1,933997	162,589068	108,219	-0,069682	22,520000	47,585000
1,925954	155,441514	109,422	-0,072526	22,520000	47,585000
1,917977	147,155455	110,624	-0,075824	22,520000	47,585000
1,910007	137,972578	111,828	-0,079479	22,510000	47,570000
1,902034	129,861956	113,030	-0,082707	22,510000	47,570000
1,894019	122,540191	114,231	-0,085621	22,510000	47,570000
1,886006	114,470055	115,434	-0,088833	22,520000	47,585000
1,878014	106,183996	116,635	-0,092131	22,520000	47,585000
1,870020	98,405848	117,839	-0,095227	22,530000	47,585000
1,861978	90,278050	119,041	-0,098461	22,530000	47,585000
1,854020	82,166202	120,242	-0,101690	22,530000	47,585000
1,845991	73,681395	121,445	-0,105067	22,530000	47,585000
1,838001	65,137700	122,646	-0,108467	22,530000	47,585000
1,830030	57,982785	123,849	-0,111315	22,510000	47,555000
1,822003	48,899282	125,052	-0,114930	22,510000	47,555000
1,814034	42,118552	126,253	-0,117629	22,530000	47,595000
1,806005	34,097489	127,453	-0,120821	22,530000	47,570000
1,798018	26,227328	128,656	-0,123954	22,530000	47,570000
1,790036	16,920540	129,861	-0,127658	22,520000	47,555000
1,782035	8,850404	131,063	-0,130870	22,520000	47,555000
1,774022	1,852524	132,267	-0,133655	22,520000	47,595000
1,765982	-6,207797	133,471	-0,136863	22,520000	47,595000
1,758022	-14,352770	134,671	-0,140104	22,520000	47,595000
1,750057	-22,654778	135,875	-0,143409	22,520000	47,570000
1,741994	-30,183878	137,076	-0,146405	22,520000	47,570000
1,733967	-39,201133	138,277	-0,149994	22,520000	47,570000
1,726016	-46,597735	139,479	-0,152938	22,520000	47,545000
1,718045	-54,318222	140,680	-0,156011	22,520000	47,545000
1,710020	-63,434850	141,881	-0,159639	22,520000	47,570000
1,702033	-70,283056	143,082	-0,162365	22,520000	47,570000
1,693995	-79,126099	144,284	-0,165884	22,530000	47,595000
1,686013	-87,071098	145,487	-0,169046	22,530000	47,595000
1,678064	-94,957208	146,687	-0,172185	22,530000	47,595000
1,670014	-102,620034	147,890	-0,175235	22,530000	47,585000
1,662051	-111,353889	149,092	-0,178711	22,530000	47,585000
1,654039	-118,292880	150,294	-0,181473	22,530000	47,585000
[...]
3,704705	2019,636758	671,641	0,669556	22,530000	47,360000
3,663699	1978,640762	677,803	0,653239	22,520000	47,375000
3,622726	1938,367374	683,968	0,637210	22,530000	47,375000
3,581722	1897,338254	690,129	0,620881	22,510000	47,320000
3,540740	1855,992610	696,288	0,604425	22,530000	47,345000
3,499759	1815,221125	702,453	0,588198	22,520000	47,335000
3,458736	1773,260835	708,617	0,571498	22,530000	47,305000
3,417734	1732,388750	714,779	0,555231	22,520000	47,345000
3,376765	1692,231912	720,939	0,539249	22,520000	47,335000
3,335816	1650,155072	727,103	0,522502	22,530000	47,320000
3,294721	1609,799486	733,267	0,506440	22,520000	47,360000
3,253761	1569,251286	739,433	0,490302	22,530000	47,335000
3,212815	1527,931405	745,618	0,473857	22,510000	47,305000
3,171775	1486,286413	751,784	0,457282	22,540000	47,345000
3,130819	1446,246123	757,945	0,441346	22,530000	47,375000
3,089845	1405,773987	764,107	0,425238	22,530000	47,360000
3,048775	1364,585378	770,268	0,408845	22,530000	47,345000
3,007803	1324,080117	776,436	0,392724	22,530000	47,360000
2,966786	1282,269502	782,594	0,376083	22,520000	47,375000
2,925815	1242,196088	788,763	0,360134	22,520000	47,335000
2,884787	1200,608757	794,928	0,343583	22,520000	47,320000
2,843833	1159,612761	801,087	0,327266	22,510000	47,335000
2,802772	1119,231411	807,247	0,311194	22,530000	47,375000
2,761860	1077,537345	813,411	0,294600	22,520000	47,320000
2,720843	1037,355969	819,577	0,278608	22,530000	47,360000
2,679862	997,356166	825,742	0,262688	22,520000	47,320000
2,638835	955,679275	831,908	0,246101	22,530000	47,320000
2,597821	914,939689	838,073	0,229886	22,510000	47,335000
2,556880	874,218505	844,241	0,213679	22,530000	47,320000
2,515863	833,313295	850,400	0,197399	22,520000	47,345000
2,474854	793,123332	856,556	0,181403	22,530000	47,335000
2,433882	752,343259	862,713	0,165173	22,520000	47,345000
2,392815	711,546011	868,880	0,148936	22,520000	47,360000
2,351840	671,439473	875,037	0,132973	22,530000	47,335000
2,310858	630,575976	881,199	0,116709	22,530000	47,335000
2,269874	589,721066	887,363	0,100449	22,520000	47,320000
2,228864	549,572815	893,527	0,084470	22,530000	47,345000
2,187849	507,969535	899,690	0,067912	22,520000	47,345000
2,146920	468,294843	905,847	0,052122	22,530000	47,305000
2,105847	428,054580	912,006	0,036106	22,530000	47,345000
2,064820	386,809536	918,168	0,019690	22,520000	47,320000
2,023838	346,943458	924,328	0,003824	22,510000	47,360000
1,982872	306,029660	930,492	-0,012460	22,530000	47,335000
1,941873	266,055620	936,653	-0,028370	22,510000	47,345000
1,900853	225,550359	942,817	-0,044491	22,530000	47,345000
1,859846	184,213303	948,979	-0,060943	22,530000	47,335000
1,818869	145,177793	955,139	-0,076479	22,530000	47,335000
1,777812	105,137504	961,300	-0,092415	22,510000	47,375000
1,736837	64,381968	967,467	-0,108636	22,530000	47,335000
1,695874	24,207954	973,629	-0,124625	22,530000	47,335000
1,654857	-17,576898	979,790	-0,141255	22,520000	47,345000
1,613929	-57,808574	985,950	-0,157268	22,530000	47,360000
1,572881	-97,333592	992,109	-0,172999	22,510000	47,360000
1,531884	-138,447364	998,265	-0,189362	22,520000	47,320000
1,490907	-179,110886	1004,431	-0,205546	22,520000	47,295000
1,449858	-220,016096	1010,590	-0,221826	22,540000	47,360000
1,408867	-261,245191	1016,751	-0,238235	22,510000	47,375000
1,367913	-299,398604	1022,919	-0,253420	22,520000	47,360000
1,326871	-334,386778	1029,081	-0,267346	22,530000	47,335000
1,285883	-0,067476	1035,237	-0,134287	22,510000	47,305000
1,244896	-0,074837	1041,400	-0,134290	22,510000	47,335000
1,203891	-0,290760	1047,564	-0,134375	22,530000	47,335000
1,165897	-0,257636	1053,272	-0,134362	22,530000	47,320000

File: array-partial unload
Quasi static measurement routine
Tip parameters (shape,radius, material...)
11.07.2022

Piezo position[nm]	MEMS displ.[nm]	Time[ms]	Cap [pf]
eoh

X-Pos [um]	Y-Pos [um]
0,000000	0,000000

POC
2,681934
2,405916	-1,281457	0,801	-0,104177
2,431946	-4,329277	1,454	-0,105500
2,457919	-5,671488	2,104	-0,106083
2,483967	-8,780062	2,764	-0,107432
2,509957	-14,268163	3,428	-0,109813
2,535946	-19,571753	4,090	-0,112115
2,561974	-24,327432	4,751	-0,114179
2,587942	-15,060214	5,407	-0,110157
2,613957	-3,232332	6,074	-0,105024
2,639951	10,852445	6,736	-0,098911
2,665981	27,862408	7,400	-0,091529
2,691948	46,458723	8,054	-0,083458
2,717917	64,201109	8,709	-0,075758
2,743892	74,504518	9,362	-0,071286
2,769954	87,918752	10,016	-0,065464
2,781982	93,100833	10,671	-0,063215
2,781909	92,430291	11,351	-0,063506
2,781899	92,917447	12,006	-0,063295
2,781902	92,369537	12,675	-0,063533
2,781949	92,491044	13,330	-0,063480
2,781957	92,307658	13,992	-0,063560
2,781933	91,271466	14,646	-0,064009
2,781964	92,491044	15,308	-0,063480
2,759971	75,784850	15,962	-0,070730
2,733891	57,676816	16,618	-0,078589
2,707897	38,654099	17,273	-0,086845
2,681897	20,485311	17,927	-0,094730
2,705944	37,678661	18,564	-0,087269
2,731916	56,152344	19,216	-0,079251
2,757950	75,114307	19,872	-0,071021
2,783913	92,856693	20,540	-0,063321
2,809900	110,538324	21,229	-0,055647
2,835976	126,023816	21,882	-0,048927
2,861924	140,230100	22,568	-0,042761
2,887956	153,339439	23,246	-0,037072
2,913959	167,362336	23,902	-0,030986
2,939963	180,470550	24,585	-0,025297
2,965929	195,773780	25,260	-0,018655
2,991914	211,199642	25,944	-0,011960
3,017908	223,393172	26,603	-0,006668
3,043962	236,502511	27,276	-0,000979
3,069924	249,366584	27,931	0,004604
3,095921	262,902326	28,594	0,010479
3,121935	277,108610	29,252	0,016644
3,147920	286,436582	29,906	0,020692
3,173908	299,667429	30,574	0,026435
3,181878	302,898636	31,248	0,027837
3,181893	302,959389	31,912	0,027863
3,181903	302,288846	32,577	0,027572
3,181890	301,800565	33,233	0,027360
3,181857	301,862444	33,890	0,027387
3,181920	301,679057	34,541	0,027308
3,181868	301,983952	35,202	0,027440
3,181910	301,923198	35,861	0,027414
3,155949	282,290692	36,528	0,018893
3,129916	264,426798	37,180	0,011140
3,103832	247,294202	37,833	0,003705
3,077943	227,173414	38,489	-0,005028
3,051934	208,943872	39,141	-0,012939
3,025909	190,896592	39,818	-0,020772
2,999909	171,995383	40,483	-0,028975
2,987926	163,886989	41,124	-0,032494
3,013907	181,567495	41,792	-0,024821
3,039918	199,432514	42,458	-0,017067
3,065907	219,430669	43,119	-0,008388
3,091899	236,745527	43,772	-0,000874
3,117893	256,135018	44,434	0,007542
3,143932	274,059665	45,097	0,015321
3,169890	293,265769	45,790	0,023656
3,195958	311,983592	46,470	0,031780
3,221842	329,724852	47,139	0,039479
3,247868	335,212954	47,796	0,041861
3,273893	347,772132	48,484	0,047312
3,299909	363,075362	49,174	0,053954
3,325840	376,550349	49,840	0,059802
3,351815	388,988020	50,517	0,065200
3,377851	402,463008	51,171	0,071048
3,403888	417,034940	51,872	0,077372
3,429854	424,838440	52,557	0,080759
3,455873	438,434935	53,242	0,086660
3,481854	453,189129	53,916	0,093063
3,507851	467,700308	54,594	0,099361
3,533817	483,247678	55,248	0,106108
3,559777	499,709731	55,900	0,113253
3,581803	513,122840	56,596	0,119074
3,581750	513,732629	57,268	0,119339
3,581787	513,732629	57,940	0,119339
3,581780	513,366980	58,595	0,119180
3,581811	513,366980	59,250	0,119180
3,581785	513,306227	59,905	0,119154
3,581730	513,245473	60,578	0,119127
3,581769	512,635684	61,248	0,118863
3,569795	504,160516	61,915	0,115185
3,543820	485,260432	62,599	0,106982
3,517793	466,969011	63,279	0,099043
3,491808	448,677590	63,954	0,091105
3,465822	430,630310	64,629	0,083272
3,439849	411,790980	65,299	0,075096
3,413856	393,256543	65,980	0,067052
3,387820	375,148510	66,662	0,059193
3,361853	358,319682	67,350	0,051890
3,335810	338,017758	68,004	0,043079
3,309889	319,908599	68,664	0,035219
3,283829	301,434917	69,354	0,027202
3,303845	315,946096	70,009	0,033500
3,329852	334,054129	70,701	0,041358
3,355845	351,979902	71,362	0,049138
3,381841	370,575092	72,036	0,057208
3,407845	389,597809	72,713	0,065464
3,433867	407,766597	73,392	0,073350
3,459841	426,362912	74,086	0,081420
3,485825	444,226806	74,749	0,089173
3,511821	462,334839	75,450	0,097032
3,537858	481,114541	76,122	0,105183
3,563803	500,319520	76,792	0,113518
3,589823	518,671695	77,462	0,121482
3,615816	538,243448	78,121	0,129977
3,641815	556,594497	78,795	0,137941
3,667836	575,434953	79,472	0,146118
3,693769	594,152776	80,133	0,154241
3,719787	613,236247	80,811	0,162523
3,745820	631,465789	81,506	0,170435
3,771819	642,989901	82,178	0,175437
3,797812	660,366638	82,871	0,182978
3,823735	678,352040	83,551	0,190784
3,849764	696,825722	84,241	0,198801
3,875753	715,117142	84,938	0,206740
3,901812	731,944844	85,604	0,214043
3,927756	745,053058	86,278	0,219732
3,953771	763,161092	86,971	0,227591
3,979716	782,183810	87,627	0,235847
3,981757	782,001548	88,283	0,235768
3,981755	782,062302	88,974	0,235794
3,981796	782,123056	89,632	0,235820
3,981748	781,878915	90,322	0,235714
3,981746	781,634775	90,987	0,235608
3,981776	782,244564	91,682	0,235873
3,981766	781,696654	92,351	0,235635
3,975779	776,696834	93,039	0,233465
3,949766	757,003573	93,727	0,224918
3,923822	737,249559	94,382	0,216345
3,897787	717,312158	95,064	0,207692
3,871775	696,460073	95,741	0,198643
3,845792	676,766813	96,413	0,190096
3,819765	656,768658	97,088	0,181417
3,793804	636,831257	97,789	0,172764
3,767793	617,260630	98,477	0,164270
3,741830	597,201721	99,134	0,155564
3,715787	578,177878	99,828	0,147308
3,689796	558,423864	100,512	0,138735
3,663816	538,486463	101,189	0,130082
3,637837	519,586379	101,848	0,121879
3,611734	499,832364	102,542	0,113306
3,585842	481,357557	103,220	0,105288
3,601826	493,247318	103,901	0,110448
3,627862	512,147402	104,585	0,118651
3,653831	532,328944	105,262	0,127410
3,679769	551,473169	105,949	0,135718
3,705850	570,922289	106,625	0,144159
3,731769	590,921569	107,330	0,152839
3,757798	610,919724	108,004	0,161518
3,783830	630,308090	108,685	0,169933
3,809756	649,817963	109,354	0,178400
3,835763	669,816118	110,036	0,187079
3,861790	689,997660	110,729	0,195838
3,887798	709,202639	111,436	0,204173
3,913796	729,140040	112,132	0,212826
3,939827	749,260828	112,802	0,221558
3,965756	769,319736	113,485	0,230264
3,991773	788,524716	114,176	0,238599
4,017721	807,852328	114,837	0,246987
4,043774	827,911236	115,535	0,255692
4,069794	846,386044	116,201	0,263710
4,095764	865,041988	116,856	0,271807
4,121743	883,516795	117,551	0,279825
4,147723	902,661020	118,253	0,288134
4,173761	922,719929	118,948	0,296839
4,199708	941,193611	119,603	0,304857
4,225718	959,119384	120,288	0,312637
4,251748	978,385117	120,960	0,320998
4,277733	996,799170	121,634	0,328990
4,303673	1015,761134	122,328	0,337219
4,329699	1034,417078	123,007	0,345316
4,355688	1053,074147	123,662	0,353413
4,381688	1073,133056	124,338	0,362119
4,381698	1072,645899	125,020	0,361907
4,381714	1072,401759	125,709	0,361801
4,381699	1072,218372	126,388	0,361722
4,381630	1072,341005	127,083	0,361775
4,381726	1072,218372	127,795	0,361722
4,381673	1072,279126	128,453	0,361748
4,381673	1072,706653	129,125	0,361934
4,373706	1066,243115	129,791	0,359128
4,347675	1046,793995	130,457	0,350687
4,321711	1027,223367	131,167	0,342194
4,295744	1007,346720	131,856	0,333567
[...]
3,926509	838,764806	115,897	0,269293
3,952553	848,520305	116,605	0,273527
3,978546	860,957976	117,292	0,278925
4,004546	860,957976	117,972	0,278925
4,030513	874,371085	118,632	0,284747
4,056504	888,821510	119,291	0,291018
4,082503	903,210055	119,990	0,297263
4,108500	919,916250	120,678	0,304513
4,134515	936,134163	121,369	0,311552
4,160490	954,547091	122,043	0,319543
4,186470	968,814129	122,718	0,325735
4,212465	985,641831	123,402	0,333038
4,238514	998,323643	124,086	0,338542
4,238469	995,335451	124,783	0,337245
4,238436	994,360014	125,457	0,336822
4,238464	993,689471	126,143	0,336531
4,238461	993,263069	126,828	0,336346
4,238473	993,263069	127,503	0,336346
4,238481	993,263069	128,190	0,336346
4,238486	993,567963	128,881	0,336478
4,230415	986,922163	129,552	0,333594
4,204502	968,204340	130,240	0,325470
4,178526	948,632587	130,952	0,316976
4,152524	928,634433	131,651	0,308297
4,126528	909,062680	132,335	0,299803
4,100511	889,736193	133,022	0,291415
4,074509	870,713476	133,722	0,283159
4,048497	851,020215	134,429	0,274612
4,022539	832,119006	135,098	0,266409
3,996555	811,815956	135,800	0,257598
3,970536	791,940434	136,479	0,248972
3,944561	772,673576	137,147	0,240610
3,918557	753,590105	137,812	0,232328
3,892516	734,079106	138,488	0,223860
3,866571	713,898690	139,192	0,215102
3,840532	695,118988	139,848	0,206951
3,814602	676,158149	140,532	0,198722
3,788532	656,037361	141,199	0,189990
3,762563	636,893136	141,888	0,181681
3,736567	616,224438	142,562	0,172711
3,710552	597,140967	143,240	0,164429
3,684526	576,716410	143,897	0,155564
3,658518	557,449552	144,564	0,147203
3,632583	537,207256	145,253	0,138417
3,606576	517,574750	145,912	0,129897
3,580560	496,783419	146,607	0,120874
3,554566	476,603003	147,313	0,112115
3,528571	457,092004	148,013	0,103647
3,502608	436,972341	148,690	0,094916
3,476574	417,766237	149,393	0,086580
3,450595	398,256363	150,094	0,078113
3,424661	377,892560	150,771	0,069275
3,398593	358,930597	151,458	0,061045
3,372638	339,055075	152,139	0,052419
3,346600	320,337252	152,842	0,044296
3,320662	301,131147	153,519	0,035960
3,294673	282,474078	154,220	0,027863
3,268609	263,207220	154,916	0,019501
3,242643	244,062995	155,574	0,011193
3,216675	224,247102	156,261	0,002593
3,190692	206,261701	156,943	-0,005213
3,164622	188,335928	157,625	-0,012993
3,138675	172,179895	158,308	-0,020004
3,112659	157,363821	158,971	-0,026435
3,086635	146,023095	159,671	-0,031356
3,060690	134,134460	160,327	-0,036516
3,034657	123,220136	161,019	-0,041253
3,008694	115,659652	161,705	-0,044534
2,982671	106,210172	162,365	-0,048635
2,956735	97,551618	163,069	-0,052393
2,930678	90,602049	163,752	-0,055409
2,904728	83,895494	164,444	-0,058320
2,878673	76,700659	165,112	-0,061442
2,852688	70,908788	165,809	-0,063956
2,826726	66,518757	166,516	-0,065861
2,800758	62,371742	167,170	-0,067661
2,774680	55,604434	167,853	-0,070598
2,748693	49,081266	168,560	-0,073429
2,722655	41,642290	169,238	-0,076658
2,696690	35,545525	169,908	-0,079304
2,670688	27,619393	170,609	-0,082744
2,644757	21,827522	171,310	-0,085257
2,618693	14,998335	172,021	-0,088221
2,592706	8,596675	172,707	-0,091000
2,566709	2,682172	173,379	-0,093566
2,540706	-2,499910	174,050	-0,095815
2,514728	-8,475167	174,716	-0,098409
2,488740	-10,060394	175,431	-0,099097
2,462684	-8,596675	176,115	-0,098461
2,436749	-7,926132	176,785	-0,098170
2,410669	-6,340906	177,469	-0,097482
2,384760	-5,670363	178,169	-0,097191
2,358691	-4,085136	178,852	-0,096503
2,332683	-3,596855	179,531	-0,096292
2,306674	-2,926312	180,233	-0,096000
2,280726	-2,621418	180,927	-0,095868
2,254770	-1,768613	181,643	-0,095498
2,238698	-0,914684	182,083	-0,095127