Folder: Nanoindentation_Analysis/Nanoindentation Datenauswertung/data/PDMS_10-1/20.09

File: APM-PDMS10-1-100ms,4,5um,20nms,16cycles,2,5um offset,75%,5x1-1
Quasi static measurement routine
Tip parameters (shape,radius, material...)
20.09.2022

Piezo position[nm]	MEMS displ.[nm]	Time[ms]	Cap [pf]	Temp [°C]	Rh [%]
eoh

X-Pos [um]	Y-Pos [um]
0,000000	0,000431

POC
3,125918
0,738114	0,203643	6,667	-0,075920	21,880000	45,575000
0,852057	0,031241	12,378	-0,075993	21,890000	45,545000
0,966044	0,141162	18,088	-0,075946	21,880000	45,575000
1,080081	-0,172403	23,800	-0,076079	21,890000	45,560000
1,194060	-0,094879	29,514	-0,076046	21,890000	45,535000
1,308056	-0,078680	35,233	-0,076039	21,880000	45,545000
1,422068	-0,305465	40,943	-0,076135	21,890000	45,560000
1,536045	-0,165460	46,651	-0,076076	21,890000	45,560000
1,650032	-0,039340	52,362	-0,076022	21,890000	45,535000
1,764047	-0,180502	58,074	-0,076082	21,880000	45,520000
1,878019	-0,251083	63,792	-0,076112	21,890000	45,560000
1,992009	-0,101822	69,503	-0,076049	21,880000	45,575000
2,106018	0,038183	75,213	-0,075990	21,890000	45,545000
2,219953	-0,086780	80,927	-0,076042	21,890000	45,560000
2,333969	-0,369104	86,648	-0,076162	21,890000	45,545000
2,448034	-0,290423	92,359	-0,076128	21,880000	45,535000
2,562003	-0,415386	98,093	-0,076181	21,880000	45,545000
2,676011	-0,705809	103,808	-0,076304	21,890000	45,535000
2,789950	-193,668311	109,529	-0,157734	21,890000	45,545000
2,903998	-133,300781	115,241	-0,132259	21,890000	45,535000
3,017959	-65,737467	120,952	-0,103747	21,880000	45,585000
3,131942	5,533083	126,665	-0,073671	21,890000	45,535000
3,245947	75,792358	132,379	-0,044021	21,880000	45,560000
3,249947	75,989059	138,092	-0,043938	21,890000	45,585000
3,225925	57,609088	143,804	-0,051695	21,880000	45,560000
3,325905	124,286091	149,442	-0,023557	21,880000	45,520000
3,373914	155,363689	155,162	-0,010442	21,880000	45,560000
3,373933	153,718343	160,879	-0,011137	21,890000	45,535000
3,341950	130,626805	166,527	-0,020881	21,880000	45,545000
3,455882	207,973101	172,241	0,011759	21,880000	45,545000
3,497884	234,363429	177,953	0,022896	21,890000	45,545000
3,497878	233,234134	183,664	0,022419	21,890000	45,545000
3,411897	173,147771	189,300	-0,002938	21,880000	45,535000
3,525900	250,579689	195,018	0,029739	21,890000	45,560000
3,621833	315,140421	200,729	0,056983	21,890000	45,560000
3,621854	313,048449	206,443	0,056101	21,880000	45,575000
3,575841	281,069498	212,160	0,042605	21,890000	45,535000
3,531968	249,725776	217,818	0,029378	21,890000	45,545000
3,645891	329,297106	223,540	0,062958	21,890000	45,545000
3,745870	395,676744	229,259	0,090970	21,880000	45,575000
3,745900	393,473693	234,974	0,090040	21,890000	45,520000
3,703811	362,451635	240,691	0,076949	21,890000	45,545000
3,591790	285,223360	246,401	0,044358	21,890000	45,545000
3,705884	365,766625	252,045	0,078348	21,890000	45,545000
3,819892	441,018633	257,758	0,110104	21,890000	45,535000
3,869829	475,552383	263,473	0,124677	21,880000	45,560000
3,869831	473,954476	269,188	0,124003	21,880000	45,575000
3,777855	409,706152	274,903	0,096890	21,890000	45,560000
3,701911	356,117863	280,552	0,074276	21,880000	45,560000
3,815863	436,276983	286,265	0,108103	21,880000	45,560000
3,929799	515,487309	291,979	0,141530	21,880000	45,545000
3,993779	557,420487	297,695	0,159226	21,880000	45,575000
3,993779	555,876962	303,410	0,158574	21,890000	45,545000
3,915836	500,799532	309,121	0,135332	21,880000	45,545000
3,801829	420,617271	314,832	0,101495	21,890000	45,560000
3,865804	466,328264	320,476	0,120785	21,880000	45,575000
3,979788	545,945877	326,188	0,154383	21,880000	45,560000
4,093774	623,400937	331,904	0,187069	21,890000	45,560000
4,117761	639,006267	337,627	0,193655	21,890000	45,560000
4,113756	636,662054	343,342	0,192666	21,880000	45,560000
3,999798	553,415886	349,056	0,157536	21,880000	45,545000
3,885831	475,537341	354,771	0,124671	21,890000	45,575000
3,965831	533,640495	360,415	0,149190	21,890000	45,560000
4,079734	611,926327	366,128	0,182227	21,890000	45,535000
4,193763	690,274641	371,845	0,215290	21,890000	45,520000
4,241770	722,143670	377,558	0,228739	21,880000	45,560000
4,241685	721,422819	383,279	0,228435	21,880000	45,545000
4,147809	654,572256	388,999	0,200224	21,880000	45,535000
4,033777	573,457402	394,715	0,165993	21,890000	45,585000
4,005816	555,625879	400,386	0,158468	21,880000	45,560000
4,119810	636,176087	406,102	0,192460	21,890000	45,585000
4,233778	716,453227	411,815	0,226337	21,880000	45,560000
4,347762	795,123204	417,533	0,259536	21,890000	45,575000
4,365756	805,790183	423,248	0,264038	21,890000	45,545000
4,355783	797,678003	428,962	0,260614	21,880000	45,560000
4,241823	715,050865	434,673	0,225746	21,890000	45,560000
4,127827	635,330273	440,393	0,192104	21,890000	45,560000
4,095888	613,940777	446,041	0,183077	21,890000	45,545000
4,209777	696,874537	451,762	0,218075	21,890000	45,585000
4,323814	776,280408	457,479	0,251584	21,890000	45,560000
4,437753	854,495659	463,191	0,284591	21,890000	45,545000
4,489743	890,040682	468,905	0,299591	21,890000	45,560000
4,489715	888,551540	474,623	0,298963	21,890000	45,545000
4,399765	824,248834	480,334	0,271827	21,890000	45,545000
4,285853	743,117780	486,053	0,237590	21,890000	45,560000
4,171817	664,040516	491,774	0,204219	21,890000	45,545000
4,239860	713,458744	497,421	0,225074	21,890000	45,560000
4,353793	793,563481	503,140	0,258878	21,890000	45,560000
4,467766	873,824422	508,853	0,292748	21,880000	45,560000
4,581713	953,888663	514,568	0,326535	21,890000	45,575000
4,613720	974,307381	520,288	0,335152	21,890000	45,560000
4,613691	972,911961	526,010	0,334563	21,880000	45,545000
4,503731	894,383146	531,729	0,301424	21,880000	45,560000
4,389713	813,534416	537,443	0,267306	21,880000	45,585000
4,275774	733,705060	543,156	0,233618	21,890000	45,575000
4,319727	766,208161	548,803	0,247334	21,890000	45,560000
4,433740	846,265458	554,518	0,281118	21,890000	45,560000
4,547679	926,283416	560,234	0,314886	21,890000	45,545000
4,661660	1008,049698	565,952	0,349391	21,890000	45,560000
4,737613	1060,305049	571,668	0,371443	21,880000	45,535000
4,737682	1058,690943	577,385	0,370762	21,890000	45,535000
4,671682	1009,005434	583,097	0,349794	21,890000	45,560000
4,557664	927,828097	588,810	0,315538	21,880000	45,560000
4,443765	847,652779	594,528	0,281704	21,890000	45,535000
4,339714	773,090381	600,175	0,250238	21,890000	45,545000
4,453748	858,250333	605,885	0,286176	21,890000	45,520000
4,567724	937,852905	611,603	0,319768	21,890000	45,545000
4,681747	1018,356829	617,316	0,353741	21,890000	45,545000
4,795683	1100,271216	623,025	0,388309	21,890000	45,535000
4,861660	1145,072756	628,738	0,407215	21,890000	45,575000
4,861609	1143,521133	634,449	0,406560	21,890000	45,560000
4,785622	1087,181344	640,158	0,382785	21,890000	45,545000
4,671718	1006,544357	645,872	0,348756	21,880000	45,535000
4,557713	923,697377	651,587	0,313794	21,890000	45,560000
4,443769	843,781241	657,308	0,280070	21,880000	45,560000
4,523757	902,690869	662,954	0,304930	21,890000	45,545000
4,637763	984,982459	668,664	0,339657	21,880000	45,535000
4,751679	1066,434020	674,379	0,374029	21,890000	45,575000
4,865630	1146,162711	680,094	0,407675	21,880000	45,560000
4,979692	1228,476285	685,810	0,442411	21,890000	45,560000
4,985599	1230,154028	691,521	0,443119	21,890000	45,560000
4,963611	1214,102072	697,237	0,436345	21,880000	45,575000
4,849677	1131,081531	702,950	0,401311	21,890000	45,545000
4,735711	1048,148928	708,661	0,366313	21,890000	45,560000
4,621734	966,845472	714,373	0,332003	21,890000	45,545000
4,533751	904,948302	720,015	0,305882	21,890000	45,560000
4,647710	989,497325	725,728	0,341562	21,880000	45,545000
4,761652	1069,750167	731,439	0,375429	21,880000	45,545000
4,875658	1151,241067	737,154	0,409818	21,890000	45,545000
4,989563	1232,286498	742,866	0,444019	21,890000	45,545000
5,103536	1313,189610	748,576	0,478160	21,880000	45,560000
5,109538	1316,254675	754,284	0,479454	21,890000	45,585000
5,087557	1300,194618	759,988	0,472676	21,890000	45,545000
4,973622	1216,899854	765,693	0,437526	21,880000	45,560000
4,859670	1134,476359	771,408	0,402743	21,890000	45,575000
4,745671	1051,762441	777,117	0,367838	21,880000	45,535000
4,631743	971,414720	782,829	0,333931	21,880000	45,535000
4,517764	890,424828	788,544	0,299753	21,890000	45,545000
4,403738	809,897762	794,258	0,265771	21,890000	45,545000
4,289827	731,423328	799,975	0,232655	21,880000	45,560000
4,175808	650,841880	805,687	0,198649	21,880000	45,545000
4,061855	569,796449	811,399	0,164448	21,880000	45,560000
3,947878	490,092056	817,113	0,130813	21,880000	45,535000
3,833851	410,906028	822,822	0,097396	21,890000	45,560000
3,719854	328,928003	828,544	0,062802	21,880000	45,520000
3,605879	249,036165	834,261	0,029087	21,890000	45,560000
3,491873	170,358088	839,975	-0,004115	21,890000	45,535000
3,377924	89,658620	845,693	-0,038170	21,890000	45,585000
3,263995	11,356589	851,405	-0,071213	21,890000	45,545000
3,150015	-67,415210	857,114	-0,104455	21,890000	45,535000
3,036049	-144,744150	862,829	-0,137088	21,890000	45,545000
2,921981	-221,320997	868,540	-0,169403	21,890000	45,510000
2,808013	-296,134479	874,253	-0,200975	21,880000	45,545000
2,694020	-370,102146	879,969	-0,232189	21,880000	45,535000
2,580031	-444,147336	885,676	-0,263436	21,880000	45,545000
2,466005	-516,954467	891,385	-0,294161	21,880000	45,520000
2,352053	-588,231959	897,087	-0,324240	21,890000	45,560000
2,238048	-660,639903	902,796	-0,354796	21,880000	45,545000
2,124011	-728,712326	908,507	-0,383522	21,890000	45,560000
2,010047	-796,605404	914,216	-0,412173	21,880000	45,560000
1,896085	-859,693193	919,933	-0,438796	21,880000	45,520000
1,782040	-916,988716	925,651	-0,462975	21,880000	45,520000
1,668007	-968,608838	931,361	-0,484759	21,880000	45,545000
1,554106	-1009,531898	937,077	-0,502028	21,890000	45,560000
1,440057	-1052,295848	942,795	-0,520075	21,890000	45,535000
1,326067	-1072,219342	948,508	-0,528482	21,880000	45,510000
1,212079	-1055,658277	954,218	-0,521494	21,890000	45,520000
1,098079	0,195544	959,929	-0,075923	21,880000	45,575000
0,984034	0,540349	965,642	-0,075778	21,890000	45,545000
0,870107	0,328606	971,355	-0,075867	21,890000	45,560000
0,756084	0,446627	977,065	-0,075817	21,880000	45,545000
0,642084	0,775233	982,778	-0,075679	21,890000	45,560000
0,626039	0,501009	983,581	-0,075794	21,880000	45,545000

X-Pos [um]	Y-Pos [um]
0,000368	0,000907

POC
3,125754
0,737920	0,164303	6,666	-0,075685	21,880000	45,535000
0,851907	-0,102979	12,383	-0,075798	21,890000	45,575000
0,965918	-0,016199	18,101	-0,075761	21,880000	45,560000
1,079888	0,077523	23,815	-0,075722	21,890000	45,545000
1,193922	0,062481	29,530	-0,075728	21,880000	45,535000
1,307889	-0,109921	35,248	-0,075801	21,890000	45,575000
1,421873	0,203643	40,963	-0,075668	21,890000	45,520000
1,535851	-0,118021	46,676	-0,075804	21,890000	45,545000
1,649850	-0,165460	52,390	-0,075824	21,880000	45,545000
1,763844	-0,047440	58,101	-0,075774	21,890000	45,560000
1,877889	-0,102979	63,812	-0,075798	21,880000	45,520000
1,991866	0,046283	69,522	-0,075735	21,890000	45,535000
2,105836	-0,078680	75,232	-0,075788	21,880000	45,535000
2,219801	-0,172403	80,941	-0,075827	21,890000	45,545000
2,333819	0,085623	86,651	-0,075718	21,890000	45,535000
2,447827	-0,078680	92,364	-0,075788	21,880000	45,545000
2,561772	-0,180502	98,077	-0,075831	21,890000	45,535000
2,675803	-0,282324	103,789	-0,075874	21,890000	45,535000
2,789853	-194,201718	109,511	-0,157708	21,890000	45,545000
2,903760	-133,747408	115,222	-0,132196	21,880000	45,560000
3,017769	-65,894827	120,934	-0,103562	21,880000	45,545000
3,131794	4,577347	126,647	-0,073823	21,880000	45,545000
3,245715	75,204569	132,361	-0,044018	21,880000	45,545000
3,249713	73,605506	138,072	-0,044693	21,880000	45,545000
3,225759	56,087548	143,785	-0,052085	21,880000	45,535000
3,325781	121,519550	149,427	-0,024473	21,880000	45,535000
3,373759	152,055641	155,137	-0,011587	21,890000	45,535000
3,373732	150,425337	160,851	-0,012275	21,880000	45,535000
3,341729	128,549874	166,500	-0,021506	21,880000	45,535000
3,455769	203,943045	172,215	0,010310	21,880000	45,545000
3,497705	230,671236	177,929	0,021589	21,880000	45,535000
3,497738	229,134655	183,640	0,020940	21,880000	45,545000
3,411797	168,210576	189,280	-0,004770	21,890000	45,560000
3,525672	248,768883	194,995	0,029226	21,890000	45,560000
3,621646	311,393846	200,715	0,055654	21,880000	45,520000
3,621671	309,254434	206,424	0,054751	21,890000	45,560000
3,575667	275,707661	212,139	0,040594	21,880000	45,560000
3,531672	245,963002	217,783	0,028042	21,880000	45,535000
3,645655	323,872788	223,493	0,060920	21,890000	45,545000
3,745683	392,148854	229,209	0,089732	21,880000	45,560000
3,745694	390,032583	234,924	0,088839	21,890000	45,535000
3,703710	359,158629	240,636	0,075811	21,880000	45,520000
3,591682	282,087715	246,357	0,043287	21,880000	45,545000
3,705723	362,254934	251,997	0,077117	21,880000	45,560000
3,819680	440,258442	257,710	0,110035	21,890000	45,545000
3,869656	472,316073	263,426	0,123563	21,880000	45,535000
3,869658	470,858172	269,140	0,122948	21,890000	45,520000
3,777661	405,324348	274,854	0,095292	21,880000	45,535000
3,701661	353,272641	280,517	0,073327	21,880000	45,545000
3,815679	434,254434	286,234	0,107501	21,890000	45,520000
3,929640	511,725692	291,944	0,140194	21,880000	45,545000
3,993618	554,701385	297,658	0,158330	21,880000	45,560000
3,993669	553,078023	303,374	0,157645	21,880000	45,560000
3,915648	498,087372	309,089	0,134438	21,880000	45,545000
3,801687	418,015033	314,805	0,100648	21,880000	45,560000
3,865686	465,175828	320,472	0,120550	21,890000	45,495000
3,979689	543,704643	326,188	0,153689	21,880000	45,545000
4,093655	621,253425	331,905	0,186415	21,890000	45,520000
4,117642	636,481552	337,623	0,192841	21,890000	45,545000
4,113651	634,059816	343,338	0,191819	21,880000	45,560000
3,999640	552,309732	349,054	0,157320	21,880000	45,510000
3,885723	472,848323	354,774	0,123788	21,880000	45,535000
3,965642	531,202560	360,436	0,148413	21,890000	45,535000
4,079653	609,488392	366,150	0,181450	21,880000	45,560000
4,193610	687,899187	371,864	0,214539	21,880000	45,545000
4,241588	719,776316	377,578	0,227991	21,890000	45,510000
4,241669	718,702560	383,296	0,227538	21,880000	45,560000
4,147665	651,029325	389,015	0,198980	21,890000	45,535000
4,033648	570,838964	394,728	0,165140	21,890000	45,545000
4,005658	554,120538	400,383	0,158084	21,880000	45,545000
4,119675	633,448886	406,106	0,191561	21,880000	45,575000
4,233621	713,145179	411,824	0,225193	21,890000	45,560000
4,347587	792,669070	417,538	0,258752	21,880000	45,535000
4,365653	803,729451	423,248	0,263419	21,890000	45,535000
4,355650	794,949645	428,967	0,259714	21,880000	45,510000
4,241613	714,493159	434,678	0,225762	21,880000	45,520000
4,127616	634,358338	440,390	0,191945	21,880000	45,520000
4,095677	611,752768	446,035	0,182405	21,890000	45,545000
4,209586	694,765208	451,753	0,217437	21,880000	45,545000
4,323626	774,446460	457,467	0,251062	21,880000	45,545000
4,437522	852,300707	463,182	0,283917	21,880000	45,560000
4,489583	888,331698	468,898	0,299122	21,880000	45,520000
4,489534	886,693295	474,607	0,298430	21,890000	45,520000
4,399573	821,850239	480,324	0,271066	21,880000	45,560000
4,285655	741,127629	486,038	0,237001	21,880000	45,535000
4,171703	661,791182	491,749	0,203521	21,890000	45,535000
4,239627	711,836539	497,393	0,224641	21,880000	45,545000
4,353626	791,140588	503,109	0,258107	21,880000	45,560000
4,467583	872,209160	508,825	0,292318	21,880000	45,520000
4,581555	951,114022	514,546	0,325616	21,880000	45,545000
4,613538	972,291775	520,265	0,334553	21,890000	45,520000
4,613534	971,257359	525,981	0,334116	21,890000	45,560000
4,503579	891,843389	531,694	0,300604	21,890000	45,575000
4,389595	810,328190	537,406	0,266204	21,880000	45,545000
4,275674	731,062324	543,123	0,232754	21,890000	45,545000
4,319664	763,136154	548,777	0,246289	21,890000	45,545000
4,433590	844,493993	554,485	0,280622	21,880000	45,535000
4,547530	926,150354	560,196	0,315081	21,890000	45,545000
4,661512	1005,078356	565,913	0,348389	21,890000	45,545000
4,737473	1058,510441	571,633	0,370937	21,880000	45,535000
4,737522	1056,988901	577,344	0,370295	21,890000	45,545000
4,671522	1007,806715	583,058	0,349540	21,880000	45,560000
4,557529	925,915469	588,769	0,314982	21,890000	45,535000
4,443590	846,594065	594,485	0,281508	21,890000	45,545000
4,339617	771,350156	600,130	0,249755	21,880000	45,575000
4,453578	856,431428	605,838	0,285660	21,880000	45,575000
4,567534	937,616864	611,554	0,319920	21,880000	45,520000
4,681490	1016,999593	617,270	0,353419	21,890000	45,535000
4,795492	1097,565999	622,982	0,387418	21,880000	45,535000
4,861513	1143,591714	628,695	0,406841	21,880000	45,560000
4,861481	1142,345555	634,405	0,406315	21,890000	45,535000
4,785497	1086,859680	640,118	0,382900	21,890000	45,545000
4,671521	1004,702310	645,830	0,348230	21,890000	45,545000
4,557516	924,034082	651,541	0,314188	21,890000	45,545000
4,443611	843,733801	657,249	0,280301	21,890000	45,560000
4,523568	900,841880	662,896	0,304401	21,880000	45,535000
4,637520	983,994326	668,610	0,339491	21,880000	45,560000
4,751499	1065,133479	674,322	0,373732	21,880000	45,545000
4,865446	1145,990308	680,031	0,407854	21,880000	45,545000
4,979417	1225,450561	685,742	0,441386	21,880000	45,535000
4,985419	1228,640588	691,451	0,442732	21,890000	45,520000
4,963433	1211,163128	697,161	0,435356	21,880000	45,575000
4,849448	1128,753517	702,874	0,400580	21,880000	45,545000
4,735529	1047,544940	708,585	0,366310	21,890000	45,520000
4,621572	966,397688	714,298	0,332065	21,880000	45,545000
[...]
3,261628	76,325765	138,101	-0,043548	21,880000	45,510000
3,237582	59,035749	143,814	-0,050845	21,880000	45,520000
3,337640	123,895003	149,458	-0,023474	21,880000	45,520000
3,385576	154,274891	155,165	-0,010654	21,880000	45,535000
3,385541	152,549707	160,877	-0,011382	21,880000	45,520000
3,353515	130,275057	166,540	-0,020782	21,880000	45,520000
3,467588	206,177336	172,250	0,011249	21,880000	45,535000
3,509542	232,623204	177,962	0,022409	21,880000	45,510000
3,509557	231,267125	183,682	0,021837	21,880000	45,510000
3,423568	170,436769	189,333	-0,003833	21,880000	45,510000
3,537499	249,387913	195,042	0,029484	21,890000	45,510000
3,633562	313,792441	200,752	0,056663	21,880000	45,520000
3,633532	311,418145	206,468	0,055661	21,880000	45,510000
3,587553	279,298032	212,179	0,042106	21,880000	45,535000
3,543533	248,205393	217,852	0,028985	21,880000	45,520000
3,657518	326,718009	223,559	0,062117	21,880000	45,510000
3,757461	394,649271	229,271	0,090784	21,880000	45,510000
3,757493	392,509858	234,984	0,089881	21,880000	45,520000
3,715522	362,898262	240,694	0,077385	21,890000	45,510000
3,603525	284,055882	246,403	0,044114	21,890000	45,520000
3,717524	365,226276	252,047	0,078368	21,880000	45,510000
3,831491	442,970601	257,760	0,111176	21,890000	45,495000
3,881453	474,737809	263,472	0,124582	21,880000	45,495000
3,881471	473,350489	269,186	0,123996	21,890000	45,535000
3,789545	408,781657	274,899	0,096748	21,880000	45,535000
3,713507	356,721851	280,564	0,074779	21,890000	45,510000
3,827529	435,626712	286,274	0,108077	21,890000	45,510000
3,941513	513,966926	291,990	0,141136	21,880000	45,510000
4,005554	556,934519	297,702	0,159269	21,880000	45,520000
4,005515	555,218593	303,414	0,158544	21,880000	45,510000
3,927475	500,290423	309,125	0,135365	21,880000	45,520000
3,813485	421,157620	314,841	0,101971	21,880000	45,520000
3,877514	465,708077	320,495	0,120771	21,880000	45,510000
3,991460	545,945877	326,205	0,154631	21,880000	45,495000
4,105492	624,615855	331,920	0,187830	21,880000	45,520000
4,129502	638,708901	337,633	0,193777	21,880000	45,510000
4,125437	634,719342	343,348	0,192094	21,880000	45,470000
4,011515	554,888829	349,062	0,158405	21,890000	45,495000
3,897484	475,686602	354,777	0,124982	21,880000	45,510000
3,977494	531,767208	360,417	0,148648	21,890000	45,510000
4,091438	611,274900	366,130	0,182200	21,880000	45,535000
4,205435	689,788674	371,843	0,215333	21,880000	45,510000
4,253393	722,370455	377,559	0,229083	21,880000	45,545000
4,253434	721,148595	383,274	0,228567	21,880000	45,520000
4,159371	653,083114	389,002	0,199843	21,880000	45,520000
4,045457	574,475618	394,712	0,166671	21,880000	45,495000
4,017480	556,292349	400,355	0,158998	21,880000	45,495000
4,131475	636,866854	406,068	0,193000	21,880000	45,480000
4,245457	715,011524	411,780	0,225977	21,880000	45,520000
4,359390	795,256267	417,494	0,259840	21,890000	45,520000
4,377364	805,696460	423,206	0,264246	21,880000	45,510000
4,367456	799,081522	428,916	0,261455	21,880000	45,510000
4,253457	715,551874	434,632	0,226205	21,880000	45,510000
4,139394	636,889996	440,349	0,193010	21,890000	45,520000
4,107434	614,269383	445,995	0,183464	21,880000	45,535000
4,221467	696,043765	451,710	0,217973	21,880000	45,520000
4,335400	775,277233	457,425	0,251409	21,890000	45,510000
4,449399	857,239059	463,143	0,285997	21,890000	45,535000
4,501394	891,060056	468,858	0,300270	21,880000	45,495000
4,501363	890,071923	474,575	0,299853	21,880000	45,520000
4,411426	823,841547	480,288	0,271903	21,890000	45,510000
4,297447	744,818665	486,005	0,238556	21,880000	45,510000
4,183472	664,447803	491,715	0,204639	21,890000	45,510000
4,251478	713,483042	497,373	0,225332	21,890000	45,520000
4,365432	795,428669	503,083	0,259913	21,890000	45,495000
4,479414	873,808223	508,792	0,292989	21,880000	45,510000
4,593338	953,614438	514,508	0,326667	21,880000	45,520000
4,625411	975,450561	520,221	0,335882	21,880000	45,510000
4,625333	974,276140	525,940	0,335387	21,880000	45,495000
4,515386	895,292598	531,653	0,302056	21,880000	45,510000
4,401427	812,899187	537,364	0,267286	21,880000	45,495000
4,287424	734,268550	543,083	0,234104	21,870000	45,515000
4,331419	767,235634	548,734	0,248016	21,880000	45,520000
4,445374	848,711493	554,454	0,282398	21,880000	45,535000
4,559385	927,600156	560,167	0,315689	21,880000	45,510000
4,673295	1008,166562	565,879	0,349688	21,880000	45,520000
4,749295	1061,692369	571,593	0,372276	21,880000	45,520000
4,749290	1059,991484	577,309	0,371559	21,880000	45,520000
4,683317	1011,709493	583,022	0,351184	21,880000	45,520000
4,569386	929,207318	588,742	0,316368	21,880000	45,510000
4,455357	849,659129	594,457	0,282798	21,880000	45,480000
4,351378	773,999833	600,152	0,250870	21,870000	45,505000
4,465400	858,462076	605,870	0,286513	21,890000	45,520000
4,579350	940,658786	611,585	0,321200	21,880000	45,520000
4,693298	1021,021549	617,299	0,355113	21,890000	45,535000
4,807372	1101,980200	623,010	0,389278	21,880000	45,495000
4,873311	1147,055965	628,727	0,408300	21,880000	45,495000
4,873250	1145,856089	634,439	0,407793	21,890000	45,495000
4,797242	1090,333188	640,157	0,384363	21,880000	45,480000
4,683324	1007,923578	645,868	0,349586	21,880000	45,520000
4,569305	926,212835	651,579	0,315104	21,880000	45,510000
4,455360	845,270383	657,296	0,280946	21,880000	45,520000
4,535412	904,532916	662,945	0,305955	21,880000	45,510000
4,649353	985,969435	668,660	0,340321	21,890000	45,495000
4,763331	1067,571414	674,431	0,374757	21,880000	45,510000
4,877290	1148,435186	680,149	0,408882	21,880000	45,510000
4,991183	1228,891671	685,864	0,442834	21,880000	45,495000
4,997144	1232,207818	691,581	0,444234	21,880000	45,510000
4,975182	1216,116521	697,295	0,437443	21,880000	45,520000
4,861238	1132,821757	703,006	0,402293	21,880000	45,510000
4,747283	1050,633146	708,728	0,367609	21,880000	45,495000
4,633269	968,224693	714,448	0,332833	21,880000	45,510000
4,545356	906,100739	720,102	0,306617	21,880000	45,510000
4,659312	991,127629	725,813	0,342498	21,880000	45,495000
4,773315	1073,065157	731,526	0,377076	21,870000	45,505000
4,887245	1152,613346	737,243	0,410645	21,880000	45,510000
5,001183	1233,900604	742,954	0,444948	21,880000	45,510000
5,115166	1314,936778	748,662	0,479146	21,880000	45,495000
5,121130	1318,276066	754,377	0,480555	21,880000	45,495000
5,099149	1300,695627	760,090	0,473136	21,880000	45,520000
4,985170	1218,781241	765,799	0,438568	21,880000	45,520000
4,871259	1136,333447	771,517	0,403775	21,880000	45,495000
4,757318	1055,124870	777,235	0,369505	21,880000	45,495000
4,643329	974,353664	782,950	0,335419	21,880000	45,520000
4,529327	893,544274	788,668	0,301318	21,880000	45,480000
4,415365	812,938527	794,385	0,267302	21,880000	45,510000
4,301447	731,588789	800,098	0,232973	21,880000	45,535000
4,187415	651,602072	805,809	0,199218	21,880000	45,520000
4,073444	571,623454	811,517	0,165467	21,880000	45,510000
3,959459	493,086539	817,233	0,132325	21,880000	45,495000
3,845478	411,431335	822,946	0,097866	21,880000	45,520000
3,731463	330,738809	828,659	0,063814	21,880000	45,495000
3,617519	251,277399	834,371	0,030281	21,880000	45,495000
3,503553	173,838539	840,083	-0,002398	21,890000	45,510000
3,389562	95,583947	845,794	-0,035421	21,880000	45,510000
3,275610	15,699052	851,511	-0,069133	21,890000	45,510000
3,161551	-60,611671	857,219	-0,101336	21,880000	45,520000
3,047637	-137,047356	862,930	-0,133592	21,880000	45,480000
2,933635	-214,282574	868,644	-0,166185	21,880000	45,510000
2,819661	-289,966167	874,358	-0,198124	21,880000	45,495000
2,705682	-363,486050	880,072	-0,229149	21,880000	45,495000
2,591729	-434,623537	885,794	-0,259169	21,880000	45,520000
2,477708	-506,207651	891,507	-0,289377	21,880000	45,510000
2,363637	-578,889820	897,217	-0,320049	21,890000	45,520000
2,249717	-647,981617	902,929	-0,349206	21,880000	45,495000
2,135725	-717,981709	908,643	-0,378746	21,880000	45,510000
2,021692	-783,162628	914,359	-0,406252	21,880000	45,495000
1,907747	-842,441360	920,070	-0,431268	21,890000	45,495000
1,793699	-902,041756	925,780	-0,456419	21,880000	45,520000
1,679750	-955,017958	931,498	-0,478775	21,890000	45,510000
1,565761	-1004,601646	937,214	-0,499700	21,880000	45,480000
1,451735	-1036,117771	942,929	-0,513000	21,890000	45,510000
1,337739	-1064,961076	948,642	-0,525171	21,880000	45,480000
1,223756	-1024,533240	954,348	-0,508111	21,880000	45,510000
1,109719	-0,008099	960,058	-0,075761	21,890000	45,495000
0,995746	0,101822	965,768	-0,075715	21,880000	45,510000
0,881703	-0,024298	971,478	-0,075768	21,890000	45,480000
0,767765	0,164303	977,192	-0,075688	21,880000	45,495000
0,653702	0,108764	982,912	-0,075712	21,880000	45,510000
0,637733	0,116864	983,714	-0,075708	21,880000	45,510000