Folder: Nanoindentation_Analysis/Nanoindentation Datenauswertung/data/PDMS_10-1/30.09

File: APM-PDMS10-1-100ms,4um,20nms,2um offset,16cycles(5x1)
Quasi static measurement routine
Tip parameters (shape,radius, material...)
30.09.2022

Piezo position[nm]	MEMS displ.[nm]	Time[ms]	Cap [pf]	Temp [°C]	Rh [%]
eoh

X-Pos [um]	Y-Pos [um]
0,000314	0,000635

POC
3,423894
1,525989	0,219842	6,180	-0,076125	0,000000	0,000000
1,629993	0,094879	11,400	-0,076178	0,000000	0,000000
1,733929	-0,187444	16,616	-0,076297	0,000000	0,000000
1,837934	0,306622	21,826	-0,076088	0,000000	0,000000
1,941944	0,274224	27,037	-0,076102	0,000000	0,000000
2,045984	0,336706	32,248	-0,076076	0,000000	0,000000
2,149934	-0,039340	37,462	-0,076234	0,000000	0,000000
2,253966	0,024298	42,677	-0,076208	0,000000	0,000000
2,357982	0,016199	47,894	-0,076211	0,000000	0,000000
2,461938	0,164303	53,110	-0,076148	0,000000	0,000000
2,565944	0,086780	58,326	-0,076181	0,000000	0,000000
2,669929	0,227942	63,539	-0,076122	0,000000	0,000000
2,773886	0,259182	68,752	-0,076108	0,000000	0,000000
2,877924	0,219842	73,971	-0,076125	0,000000	0,000000
2,981909	0,109921	79,186	-0,076171	0,000000	0,000000
3,085856	-195,471018	84,401	-0,158707	0,000000	0,000000
3,189863	-139,758359	89,612	-0,135196	0,000000	0,000000
3,293872	-79,202227	94,835	-0,109641	0,000000	0,000000
3,397851	-15,817073	100,053	-0,082893	0,000000	0,000000
3,501829	50,312639	105,277	-0,054986	0,000000	0,000000
3,547828	76,397503	110,494	-0,043978	0,000000	0,000000
3,547807	73,990808	115,708	-0,044994	0,000000	0,000000
3,551834	76,082781	120,856	-0,044111	0,000000	0,000000
3,655826	144,484967	126,073	-0,015245	0,000000	0,000000
3,671780	153,357339	131,294	-0,011501	0,000000	0,000000
3,671780	151,562731	136,509	-0,012258	0,000000	0,000000
3,641829	129,859671	141,655	-0,021417	0,000000	0,000000
3,745783	200,918478	146,867	0,008570	0,000000	0,000000
3,795811	233,563898	152,086	0,022346	0,000000	0,000000
3,795782	231,894254	157,300	0,021642	0,000000	0,000000
3,733776	187,594879	162,510	0,002947	0,000000	0,000000
3,775777	216,971592	167,674	0,015344	0,000000	0,000000
3,879799	287,661295	172,893	0,045175	0,000000	0,000000
3,919792	313,847980	178,112	0,056226	0,000000	0,000000
3,919819	312,147095	183,324	0,055508	0,000000	0,000000
3,847770	261,262867	188,540	0,034035	0,000000	0,000000
3,845796	261,232783	193,698	0,034022	0,000000	0,000000
3,949821	333,091121	198,919	0,064347	0,000000	0,000000
4,043750	396,617437	204,127	0,091155	0,000000	0,000000
4,043699	394,171403	209,347	0,090123	0,000000	0,000000
4,025711	381,435593	214,570	0,084748	0,000000	0,000000
3,921793	307,405445	219,785	0,053507	0,000000	0,000000
3,959745	335,770883	224,950	0,065478	0,000000	0,000000
4,063749	407,794681	230,161	0,095872	0,000000	0,000000
4,167737	477,206985	235,381	0,125164	0,000000	0,000000
4,167704	476,164470	240,597	0,124724	0,000000	0,000000
4,159722	470,513366	245,813	0,122339	0,000000	0,000000
4,055736	395,888487	251,030	0,090847	0,000000	0,000000
4,009761	363,000083	256,202	0,076968	0,000000	0,000000
4,113740	437,147095	261,420	0,108258	0,000000	0,000000
4,217808	509,931085	266,632	0,138973	0,000000	0,000000
4,291691	559,843380	271,853	0,160036	0,000000	0,000000
4,291703	558,495400	277,068	0,159467	0,000000	0,000000
4,253669	530,936436	282,282	0,147837	0,000000	0,000000
4,149722	457,408453	287,502	0,116809	0,000000	0,000000
4,103770	425,460743	292,650	0,103327	0,000000	0,000000
4,207757	500,039340	297,869	0,134799	0,000000	0,000000
4,311671	571,623454	303,090	0,165007	0,000000	0,000000
4,415668	644,727951	308,301	0,195857	0,000000	0,000000
4,415652	642,635978	313,525	0,194975	0,000000	0,000000
4,407679	636,631970	318,749	0,192441	0,000000	0,000000
4,303669	561,278140	323,964	0,160642	0,000000	0,000000
4,199701	488,321747	329,180	0,129854	0,000000	0,000000
4,237695	516,780908	334,327	0,141864	0,000000	0,000000
4,341707	589,196951	339,542	0,172423	0,000000	0,000000
4,445673	662,779315	344,787	0,203475	0,000000	0,000000
4,539634	728,257600	350,006	0,231107	0,000000	0,000000
4,539651	726,133229	355,225	0,230210	0,000000	0,000000
4,521628	712,973934	360,442	0,224657	0,000000	0,000000
4,417722	638,011191	365,662	0,193023	0,000000	0,000000
4,313741	564,318906	370,877	0,161925	0,000000	0,000000
4,311705	564,318906	376,033	0,161925	0,000000	0,000000
4,415707	638,764440	381,251	0,193341	0,000000	0,000000
4,519623	710,943285	386,466	0,223800	0,000000	0,000000
4,623556	785,310140	391,680	0,255183	0,000000	0,000000
4,663595	811,128878	396,900	0,266079	0,000000	0,000000
4,663592	809,835280	402,117	0,265533	0,000000	0,000000
4,591616	757,579930	407,334	0,243481	0,000000	0,000000
4,487712	681,684593	412,547	0,211453	0,000000	0,000000
4,383681	610,092380	417,769	0,181241	0,000000	0,000000
4,425708	640,417885	422,963	0,194039	0,000000	0,000000
4,529673	716,257683	428,181	0,226043	0,000000	0,000000
4,633630	788,821831	433,392	0,256665	0,000000	0,000000
4,737588	862,858921	438,611	0,287909	0,000000	0,000000
4,787542	896,397595	443,825	0,302062	0,000000	0,000000
4,787569	894,814731	449,038	0,301394	0,000000	0,000000
4,725593	849,895170	454,255	0,282438	0,000000	0,000000
4,621576	774,909286	459,474	0,250794	0,000000	0,000000
4,517586	701,036498	464,690	0,219620	0,000000	0,000000
4,479670	673,391912	469,842	0,207954	0,000000	0,000000
4,583649	750,439685	475,060	0,240468	0,000000	0,000000
4,687635	823,418061	480,273	0,271265	0,000000	0,000000
4,791589	896,891662	485,491	0,302271	0,000000	0,000000
4,895591	970,207901	490,698	0,333210	0,000000	0,000000
4,911598	980,899178	495,911	0,337722	0,000000	0,000000
4,911533	979,950385	501,128	0,337321	0,000000	0,000000
4,815611	908,789757	506,347	0,307292	0,000000	0,000000
4,711593	834,721425	511,567	0,276035	0,000000	0,000000
4,607630	759,922986	516,779	0,244470	0,000000	0,000000
4,573651	736,448460	521,929	0,234563	0,000000	0,000000
4,677635	813,213909	527,142	0,266958	0,000000	0,000000
4,781607	886,835614	532,360	0,298027	0,000000	0,000000
4,885515	960,787082	537,585	0,329234	0,000000	0,000000
4,989504	1036,242734	542,800	0,361077	0,000000	0,000000
5,035544	1067,187269	548,014	0,374135	0,000000	0,000000
5,035496	1065,824247	553,230	0,373560	0,000000	0,000000
4,969520	1017,509858	558,449	0,353171	0,000000	0,000000
4,865563	941,584438	563,660	0,321131	0,000000	0,000000
4,761661	867,569331	568,877	0,289896	0,000000	0,000000
4,657639	793,258016	574,098	0,258537	0,000000	0,000000
4,711620	832,212909	579,256	0,274976	0,000000	0,000000
4,815574	907,732200	584,476	0,306845	0,000000	0,000000
4,919508	982,357079	589,693	0,338337	0,000000	0,000000
5,023532	1056,480950	594,912	0,369617	0,000000	0,000000
5,127481	1132,109005	600,128	0,401532	0,000000	0,000000
5,159461	1152,926911	605,340	0,410317	0,000000	0,000000
5,159508	1151,524548	610,557	0,409726	0,000000	0,000000
5,079480	1092,825505	615,766	0,384955	0,000000	0,000000
4,975514	1017,283074	620,980	0,353076	0,000000	0,000000
4,871565	942,688278	626,193	0,321597	0,000000	0,000000
4,767625	866,566156	631,412	0,289473	0,000000	0,000000
4,785629	882,657453	636,564	0,296264	0,000000	0,000000
4,889552	957,472092	641,774	0,327835	0,000000	0,000000
4,993487	1032,606080	646,995	0,359542	0,000000	0,000000
5,097516	1108,376453	652,203	0,391517	0,000000	0,000000
5,201438	1181,755174	657,418	0,422483	0,000000	0,000000
5,283453	1240,900844	662,628	0,447442	0,000000	0,000000
5,283431	1238,933834	667,850	0,446612	0,000000	0,000000
5,253417	1216,743650	673,061	0,437248	0,000000	0,000000
[...]
5,174859	1156,908370	605,131	0,412252	0,000000	0,000000
5,174872	1155,841556	610,343	0,411802	0,000000	0,000000
5,094896	1097,575255	615,557	0,387214	0,000000	0,000000
4,990974	1021,233292	620,765	0,354998	0,000000	0,000000
4,886929	946,631554	625,983	0,323516	0,000000	0,000000
4,783013	872,906870	631,196	0,292404	0,000000	0,000000
4,801044	886,771975	636,353	0,298255	0,000000	0,000000
4,905007	963,223860	641,563	0,330518	0,000000	0,000000
5,008947	1038,249084	646,775	0,362178	0,000000	0,000000
5,112924	1111,228617	651,991	0,392976	0,000000	0,000000
5,216898	1185,657953	657,207	0,424385	0,000000	0,000000
5,298863	1244,654362	662,426	0,449281	0,000000	0,000000
5,298807	1242,843556	667,644	0,448517	0,000000	0,000000
5,268890	1220,928753	672,863	0,439269	0,000000	0,000000
5,164870	1142,902103	678,079	0,406342	0,000000	0,000000
5,060956	1067,986800	683,287	0,374728	0,000000	0,000000
4,956944	993,784249	688,501	0,343414	0,000000	0,000000
4,853029	918,335539	693,713	0,311575	0,000000	0,000000
4,918988	967,526983	698,866	0,332333	0,000000	0,000000
5,022943	1043,547282	704,083	0,364414	0,000000	0,000000
5,126885	1120,053549	709,302	0,396700	0,000000	0,000000
5,230863	1194,961909	714,516	0,428311	0,000000	0,000000
5,334858	1268,740975	719,732	0,459446	0,000000	0,000000
5,422770	1332,219852	724,948	0,486234	0,000000	0,000000
5,422793	1330,472684	730,166	0,485497	0,000000	0,000000
5,398799	1313,002166	735,384	0,478124	0,000000	0,000000
5,294845	1235,350405	740,598	0,445355	0,000000	0,000000
5,190910	1159,627471	745,817	0,413400	0,000000	0,000000
5,086949	1084,470342	751,038	0,381684	0,000000	0,000000
4,983013	1008,942952	756,254	0,349811	0,000000	0,000000
4,879067	935,751675	761,469	0,318924	0,000000	0,000000
4,775042	861,847647	766,690	0,287737	0,000000	0,000000
4,671070	788,131063	771,903	0,256628	0,000000	0,000000
4,567088	714,054632	777,113	0,225368	0,000000	0,000000
4,463089	639,319831	782,326	0,193830	0,000000	0,000000
4,359152	566,668904	787,551	0,163171	0,000000	0,000000
4,255190	492,906037	792,767	0,132043	0,000000	0,000000
4,151190	419,629138	797,986	0,101121	0,000000	0,000000
4,047220	346,273558	803,196	0,070165	0,000000	0,000000
3,943218	272,448210	808,411	0,039010	0,000000	0,000000
3,839247	198,904028	813,628	0,007975	0,000000	0,000000
3,735222	126,347980	818,853	-0,022644	0,000000	0,000000
3,631238	52,757516	824,074	-0,053699	0,000000	0,000000
3,527289	-16,342380	829,289	-0,082859	0,000000	0,000000
3,423270	-87,604830	834,507	-0,112932	0,000000	0,000000
3,319285	-157,425578	839,719	-0,142396	0,000000	0,000000
3,215324	-228,155778	844,931	-0,172245	0,000000	0,000000
3,111315	-295,586030	850,145	-0,200700	0,000000	0,000000
3,007379	-365,124454	855,362	-0,230045	0,000000	0,000000
2,903404	-434,490475	860,575	-0,259318	0,000000	0,000000
2,799396	-498,323413	865,790	-0,286255	0,000000	0,000000
2,695391	-564,796773	871,006	-0,314307	0,000000	0,000000
2,591420	-625,932594	876,219	-0,340106	0,000000	0,000000
2,487402	-688,378212	881,433	-0,366458	0,000000	0,000000
2,383383	-753,417969	886,645	-0,393905	0,000000	0,000000
2,279356	-810,094463	891,858	-0,417823	0,000000	0,000000
2,175417	-864,889570	897,081	-0,440946	0,000000	0,000000
2,071379	-916,658953	902,303	-0,462793	0,000000	0,000000
1,967418	-969,306548	907,524	-0,485010	0,000000	0,000000
1,863430	-1005,737883	912,745	-0,500384	0,000000	0,000000
1,759435	-1032,128212	917,957	-0,511521	0,000000	0,000000
1,655447	-1038,367104	923,174	-0,514154	0,000000	0,000000
1,551460	-945,447877	928,392	-0,474942	0,000000	0,000000
1,447424	-0,227942	933,605	-0,076059	0,000000	0,000000
1,439464	-0,211743	934,005	-0,076052	0,000000	0,000000

File: APM-PDMS10-1-100ms,4um,40nms,2um offset,16cycles(5x1)
Quasi static measurement routine
Tip parameters (shape,radius, material...)
04.10.2022

Piezo position[nm]	MEMS displ.[nm]	Time[ms]	Cap [pf]	Temp [°C]	Rh [%]
eoh

X-Pos [um]	Y-Pos [um]
0,000799	0,000608

POC
3,333926
1,454087	0,251083	4,042	-0,075361	0,000000	0,000000
1,578072	-0,008099	7,153	-0,075470	0,000000	0,000000
1,702053	0,282324	10,265	-0,075348	0,000000	0,000000
1,826079	-0,070581	13,379	-0,075497	0,000000	0,000000
1,950067	0,219842	16,490	-0,075374	0,000000	0,000000
2,074033	0,219842	19,604	-0,075374	0,000000	0,000000
2,198071	-0,086780	22,714	-0,075503	0,000000	0,000000
2,322038	-0,070581	25,822	-0,075497	0,000000	0,000000
2,446038	0,093722	28,928	-0,075427	0,000000	0,000000
2,570021	-0,078680	32,039	-0,075500	0,000000	0,000000
2,694042	-0,086780	35,150	-0,075503	0,000000	0,000000
2,818011	-0,054382	38,268	-0,075490	0,000000	0,000000
2,942014	-0,008099	41,378	-0,075470	0,000000	0,000000
3,066012	-157,637320	44,489	-0,141990	0,000000	0,000000
3,189965	-82,431594	47,598	-0,110253	0,000000	0,000000
3,313937	-6,787341	50,710	-0,078331	0,000000	0,000000
3,437921	67,578356	53,820	-0,046949	0,000000	0,000000
3,457912	77,783666	56,931	-0,042642	0,000000	0,000000
3,457925	75,895337	60,036	-0,043439	0,000000	0,000000
3,457864	74,860921	63,147	-0,043875	0,000000	0,000000
3,465886	77,611263	66,189	-0,042715	0,000000	0,000000
3,581851	158,593056	69,300	-0,008541	0,000000	0,000000
3,581862	154,854580	72,408	-0,010118	0,000000	0,000000
3,581857	153,145596	75,519	-0,010839	0,000000	0,000000
3,581854	152,511524	78,629	-0,011107	0,000000	0,000000
3,553863	133,253342	81,667	-0,019234	0,000000	0,000000
3,677910	217,339538	84,778	0,016250	0,000000	0,000000
3,705869	234,590214	87,889	0,023530	0,000000	0,000000
3,705866	232,944868	90,994	0,022836	0,000000	0,000000
3,705857	231,878055	94,101	0,022386	0,000000	0,000000
3,637778	185,618613	97,215	0,002864	0,000000	0,000000
3,709868	235,828273	100,259	0,024053	0,000000	0,000000
3,829865	317,923162	103,371	0,058697	0,000000	0,000000
3,829824	314,624371	106,484	0,057305	0,000000	0,000000
3,829839	313,596897	109,595	0,056871	0,000000	0,000000
3,829837	312,405121	112,707	0,056368	0,000000	0,000000
3,729851	240,814064	115,816	0,026157	0,000000	0,000000
3,801830	294,261191	118,867	0,048711	0,000000	0,000000
3,925839	377,343056	121,981	0,083772	0,000000	0,000000
3,953829	397,047865	125,092	0,092087	0,000000	0,000000
3,953857	394,939694	128,203	0,091198	0,000000	0,000000
3,953785	394,046440	131,315	0,090821	0,000000	0,000000
3,885843	345,411545	134,426	0,070297	0,000000	0,000000
3,829872	304,497741	137,467	0,053031	0,000000	0,000000
3,953806	392,345555	140,578	0,090103	0,000000	0,000000
4,077799	478,077098	143,687	0,126282	0,000000	0,000000
4,077818	477,215084	146,797	0,125918	0,000000	0,000000
4,077792	476,791599	149,911	0,125739	0,000000	0,000000
4,077787	475,607922	153,022	0,125240	0,000000	0,000000
3,981843	408,844139	156,133	0,097065	0,000000	0,000000
3,917848	360,609588	159,175	0,076710	0,000000	0,000000
4,041846	449,084531	162,286	0,114047	0,000000	0,000000
4,165794	538,876213	165,396	0,151939	0,000000	0,000000
4,201804	561,363763	168,503	0,161429	0,000000	0,000000
4,201802	560,556132	171,614	0,161088	0,000000	0,000000
4,201801	559,200052	174,722	0,160516	0,000000	0,000000
4,141838	513,943785	177,833	0,141417	0,000000	0,000000
4,017821	428,870612	180,944	0,105517	0,000000	0,000000
4,073851	466,445127	183,997	0,121373	0,000000	0,000000
4,197826	554,450302	187,108	0,158511	0,000000	0,000000
4,321827	643,865938	190,210	0,196245	0,000000	0,000000
4,325779	643,913378	193,319	0,196265	0,000000	0,000000
4,325836	642,698460	196,450	0,195752	0,000000	0,000000
4,325828	641,232459	199,559	0,195133	0,000000	0,000000
4,233754	576,992234	202,665	0,168024	0,000000	0,000000
4,109832	489,167561	205,774	0,130962	0,000000	0,000000
4,165808	530,082522	208,854	0,148228	0,000000	0,000000
4,289799	616,370612	211,959	0,184642	0,000000	0,000000
4,413709	702,924828	215,064	0,221167	0,000000	0,000000
4,449713	728,390662	218,176	0,231914	0,000000	0,000000
4,449744	726,602997	221,286	0,231160	0,000000	0,000000
4,449740	725,960826	224,400	0,230889	0,000000	0,000000
4,389752	681,911378	227,511	0,212300	0,000000	0,000000
4,265812	591,673069	230,622	0,174219	0,000000	0,000000
4,193805	543,023132	233,660	0,153689	0,000000	0,000000
4,317767	634,029732	236,770	0,192094	0,000000	0,000000
4,441753	722,370455	239,876	0,229374	0,000000	0,000000
4,565769	808,149437	242,990	0,265572	0,000000	0,000000
4,573763	812,406278	246,098	0,267369	0,000000	0,000000
4,573716	811,135821	249,205	0,266833	0,000000	0,000000
4,573746	810,086363	252,316	0,266390	0,000000	0,000000
4,485806	744,363938	255,425	0,238655	0,000000	0,000000
4,361788	658,734218	258,535	0,202519	0,000000	0,000000
4,281844	600,357996	261,586	0,177884	0,000000	0,000000
4,405809	692,438352	264,695	0,216742	0,000000	0,000000
4,529737	780,959577	267,810	0,254098	0,000000	0,000000
4,653769	867,976618	270,917	0,290819	0,000000	0,000000
4,697684	897,118446	274,031	0,303117	0,000000	0,000000
4,697727	896,131470	277,147	0,302701	0,000000	0,000000
4,697658	895,512441	280,256	0,302439	0,000000	0,000000
4,645678	855,530074	283,367	0,285567	0,000000	0,000000
4,521702	768,983958	286,474	0,249044	0,000000	0,000000
4,397765	677,130387	289,585	0,210282	0,000000	0,000000
4,437789	709,242400	292,622	0,223833	0,000000	0,000000
4,561786	797,090214	295,728	0,260905	0,000000	0,000000
4,685739	885,361513	298,837	0,298156	0,000000	0,000000
4,809681	974,095638	301,944	0,335602	0,000000	0,000000
4,821633	982,843047	305,049	0,339293	0,000000	0,000000
4,821693	981,510108	308,156	0,338730	0,000000	0,000000
4,821715	980,546273	311,264	0,338324	0,000000	0,000000
4,737742	920,930835	314,374	0,313166	0,000000	0,000000
4,613737	827,650604	317,486	0,273802	0,000000	0,000000
4,489737	742,193285	320,600	0,237739	0,000000	0,000000
4,529751	771,640579	323,645	0,250166	0,000000	0,000000
4,653695	859,096147	326,754	0,287072	0,000000	0,000000
4,777727	951,184603	329,868	0,325933	0,000000	0,000000
4,901657	1040,059890	332,972	0,363438	0,000000	0,000000
4,945542	1068,880054	336,082	0,375601	0,000000	0,000000
4,945609	1067,751916	339,192	0,375125	0,000000	0,000000
4,945671	1066,458318	342,297	0,374579	0,000000	0,000000
4,893697	1030,184344	345,400	0,359271	0,000000	0,000000
4,769756	936,285082	348,506	0,319646	0,000000	0,000000
4,645822	849,596647	351,617	0,283063	0,000000	0,000000
4,557771	782,409379	354,657	0,254710	0,000000	0,000000
4,681752	877,822080	357,764	0,294974	0,000000	0,000000
4,805722	964,964085	360,872	0,331748	0,000000	0,000000
4,929666	1054,176077	363,986	0,369396	0,000000	0,000000
5,053626	1145,346981	367,094	0,407870	0,000000	0,000000
5,069609	1155,136904	370,200	0,412001	0,000000	0,000000
5,069588	1153,404778	373,308	0,411270	0,000000	0,000000
5,069609	1152,652686	376,420	0,410953	0,000000	0,000000
4,989612	1092,190277	379,530	0,385437	0,000000	0,000000
4,865644	1004,208244	382,638	0,348309	0,000000	0,000000
4,741626	914,629462	385,743	0,310507	0,000000	0,000000
4,645745	844,541432	388,786	0,280930	0,000000	0,000000
4,769726	937,452560	391,897	0,320138	0,000000	0,000000
4,893623	1024,470759	395,002	0,356860	0,000000	0,000000
5,017654	1114,096981	398,109	0,394682	0,000000	0,000000
5,141631	1203,308973	401,217	0,432330	0,000000	0,000000
[...]
4,585556	853,476285	351,550	0,284981	0,000000	0,000000
4,497541	789,096055	354,611	0,257813	0,000000	0,000000
4,621524	878,566073	357,720	0,295569	0,000000	0,000000
4,745502	971,265458	360,828	0,334688	0,000000	0,000000
4,869462	1057,507266	363,938	0,371083	0,000000	0,000000
4,993377	1148,592547	367,051	0,409521	0,000000	0,000000
5,009414	1158,217010	370,159	0,413582	0,000000	0,000000
5,009387	1157,174495	373,268	0,413142	0,000000	0,000000
5,009373	1156,155121	376,373	0,412712	0,000000	0,000000
4,929414	1097,324172	379,480	0,387885	0,000000	0,000000
4,805460	1007,335789	382,583	0,349910	0,000000	0,000000
4,681504	915,843222	385,694	0,311300	0,000000	0,000000
4,585575	848,005684	388,732	0,282673	0,000000	0,000000
4,709477	940,956152	391,842	0,321898	0,000000	0,000000
4,833482	1030,176244	394,951	0,359549	0,000000	0,000000
4,957394	1120,986143	398,061	0,397871	0,000000	0,000000
5,081330	1207,487133	401,173	0,434374	0,000000	0,000000
5,133291	1245,665636	404,287	0,450485	0,000000	0,000000
5,133349	1244,207735	407,390	0,449870	0,000000	0,000000
5,133344	1243,470685	410,495	0,449559	0,000000	0,000000
5,089389	1211,107588	413,602	0,435902	0,000000	0,000000
4,965410	1118,634988	416,711	0,396878	0,000000	0,000000
4,841438	1030,386830	419,822	0,359638	0,000000	0,000000
4,717457	938,275233	422,928	0,320767	0,000000	0,000000
4,741543	956,883146	425,973	0,328619	0,000000	0,000000
4,865429	1051,025391	429,087	0,368347	0,000000	0,000000
4,989398	1138,128055	432,196	0,405104	0,000000	0,000000
5,113341	1228,045857	435,301	0,443050	0,000000	0,000000
5,237330	1317,798199	438,415	0,480925	0,000000	0,000000
5,257249	1332,172412	441,525	0,486991	0,000000	0,000000
5,257344	1330,919311	444,634	0,486462	0,000000	0,000000
5,257303	1330,354663	447,747	0,486224	0,000000	0,000000
5,181370	1273,694368	450,855	0,462313	0,000000	0,000000
5,057404	1182,067582	453,968	0,423647	0,000000	0,000000
4,933404	1092,683186	457,074	0,385927	0,000000	0,000000
4,809431	1001,622205	460,186	0,347499	0,000000	0,000000
4,685537	914,102997	463,291	0,310566	0,000000	0,000000
4,561494	824,170153	466,403	0,272614	0,000000	0,000000
4,437547	735,256683	469,510	0,235093	0,000000	0,000000
4,313618	650,308473	472,635	0,199245	0,000000	0,000000
4,189620	560,775974	475,744	0,161462	0,000000	0,000000
4,065621	470,285425	478,852	0,123275	0,000000	0,000000
3,941636	381,669320	481,967	0,085879	0,000000	0,000000
3,817688	294,354913	485,071	0,049032	0,000000	0,000000
3,693675	209,211160	488,177	0,013102	0,000000	0,000000
3,569819	132,468852	491,286	-0,019284	0,000000	0,000000
3,445740	41,728377	494,395	-0,057576	0,000000	0,000000
3,321752	-49,074580	497,500	-0,095895	0,000000	0,000000
3,197747	-148,906111	500,608	-0,138024	0,000000	0,000000
3,073786	-230,515033	503,719	-0,172463	0,000000	0,000000
2,949863	-311,419302	506,826	-0,206604	0,000000	0,000000
2,825877	-396,571155	509,935	-0,242539	0,000000	0,000000
2,701879	-446,357329	513,044	-0,263548	0,000000	0,000000
2,577896	-524,157194	516,150	-0,296380	0,000000	0,000000
2,453852	-632,133303	519,262	-0,341946	0,000000	0,000000
2,329851	-707,910619	522,371	-0,373924	0,000000	0,000000
2,205883	-787,324589	525,481	-0,407437	0,000000	0,000000
2,081843	-857,834947	528,590	-0,437192	0,000000	0,000000
1,957846	-919,269291	531,693	-0,463117	0,000000	0,000000
1,833816	-977,364346	534,806	-0,487633	0,000000	0,000000
1,709906	-1017,110671	537,918	-0,504406	0,000000	0,000000
1,585864	-1041,675152	541,023	-0,514772	0,000000	0,000000
1,461877	-0,510265	544,135	-0,075401	0,000000	0,000000
1,337893	-0,204800	547,251	-0,075272	0,000000	0,000000
1,273886	0,313564	548,851	-0,075053	0,000000	0,000000