Folder: Nanoindentation_Analysis/Nanoindentation Datenauswertung/data/PDMS_10-1/30.09 (part 2)

File: test-9
Quasi static measurement routine
Tip parameters (shape,radius, material...)
30.09.2022

Piezo position[nm]	MEMS displ.[nm]	Time[ms]	Cap [pf]	Temp [°C]	Rh [%]
eoh
1,343938	0,093722	1,063	-0,076175	0,000000	0,000000
1,379965	0,188602	2,869	-0,076135	0,000000	0,000000
1,415949	-0,101822	4,678	-0,076257	0,000000	0,000000
1,451950	-0,141162	6,515	-0,076274	0,000000	0,000000
1,487953	0,266125	8,322	-0,076102	0,000000	0,000000
1,523956	0,047440	10,127	-0,076194	0,000000	0,000000
1,559944	0,407287	11,931	-0,076042	0,000000	0,000000
1,595969	0,101822	13,734	-0,076171	0,000000	0,000000
1,631946	0,133062	15,544	-0,076158	0,000000	0,000000
1,667929	0,054382	17,347	-0,076191	0,000000	0,000000
1,703926	-0,242984	19,150	-0,076317	0,000000	0,000000
1,739940	0,093722	20,954	-0,076175	0,000000	0,000000
1,775907	0,188602	22,756	-0,076135	0,000000	0,000000
1,811940	0,062481	24,557	-0,076188	0,000000	0,000000
1,847920	0,054382	26,361	-0,076191	0,000000	0,000000
1,883900	0,259182	28,164	-0,076105	0,000000	0,000000
1,919911	0,195544	29,967	-0,076132	0,000000	0,000000
1,955915	0,172403	31,768	-0,076142	0,000000	0,000000
1,991962	0,399187	33,577	-0,076046	0,000000	0,000000
2,027900	0,266125	35,384	-0,076102	0,000000	0,000000
2,063913	0,328606	37,187	-0,076076	0,000000	0,000000
2,099891	0,180502	38,991	-0,076138	0,000000	0,000000
2,135880	0,305465	40,795	-0,076085	0,000000	0,000000
2,171923	0,133062	42,602	-0,076158	0,000000	0,000000
2,207918	0,101822	44,407	-0,076171	0,000000	0,000000
2,243872	0,141162	46,211	-0,076155	0,000000	0,000000
2,279895	0,321664	48,013	-0,076079	0,000000	0,000000
2,315890	0,259182	49,814	-0,076105	0,000000	0,000000
2,351874	0,016199	51,617	-0,076208	0,000000	0,000000
2,387907	0,124963	53,420	-0,076162	0,000000	0,000000
2,423871	0,124963	55,221	-0,076162	0,000000	0,000000
2,459866	0,086780	57,026	-0,076178	0,000000	0,000000
2,495872	-0,124963	58,828	-0,076267	0,000000	0,000000
2,531924	0,290423	60,632	-0,076092	0,000000	0,000000
2,567890	0,039340	62,437	-0,076198	0,000000	0,000000
2,603896	0,109921	64,244	-0,076168	0,000000	0,000000
2,639900	0,086780	66,051	-0,076178	0,000000	0,000000
2,675921	-0,141162	67,854	-0,076274	0,000000	0,000000
2,711904	0,109921	69,659	-0,076168	0,000000	0,000000
2,747902	0,259182	71,465	-0,076105	0,000000	0,000000
2,783915	-0,055539	73,272	-0,076238	0,000000	0,000000
2,819883	0,219842	75,075	-0,076122	0,000000	0,000000
2,855882	0,149261	76,881	-0,076151	0,000000	0,000000
2,891894	0,031241	78,685	-0,076201	0,000000	0,000000
2,927884	-0,039340	80,489	-0,076231	0,000000	0,000000
2,963877	-0,031241	82,292	-0,076228	0,000000	0,000000
2,999904	0,164303	84,095	-0,076145	0,000000	0,000000
3,035883	-198,614762	85,898	-0,160030	0,000000	0,000000
3,071842	-184,741558	87,700	-0,154175	0,000000	0,000000
3,107861	-165,639579	89,504	-0,146114	0,000000	0,000000
3,143846	-144,210743	91,310	-0,137071	0,000000	0,000000
3,179827	-122,970509	93,114	-0,128108	0,000000	0,000000
3,215837	-102,661711	94,921	-0,119538	0,000000	0,000000
3,251869	-80,394004	96,723	-0,110141	0,000000	0,000000
3,287826	-58,768467	98,531	-0,101015	0,000000	0,000000
3,323774	-37,214668	100,334	-0,091919	0,000000	0,000000
3,359793	-15,848313	102,139	-0,082902	0,000000	0,000000
3,395798	6,113929	103,942	-0,073634	0,000000	0,000000
3,431760	30,379887	105,748	-0,063394	0,000000	0,000000
3,467785	52,780658	107,553	-0,053941	0,000000	0,000000
3,503761	74,523058	109,357	-0,044766	0,000000	0,000000
3,539759	98,688352	111,161	-0,034568	0,000000	0,000000
3,575768	121,691952	112,964	-0,024860	0,000000	0,000000
3,611747	143,215668	114,770	-0,015777	0,000000	0,000000
3,647777	166,650853	116,574	-0,005888	0,000000	0,000000
3,683780	189,514449	118,375	0,003761	0,000000	0,000000
3,719762	214,470018	120,178	0,014292	0,000000	0,000000
3,755765	236,095555	121,982	0,023418	0,000000	0,000000
3,791752	259,445118	123,788	0,033271	0,000000	0,000000
3,827786	284,463168	125,592	0,043829	0,000000	0,000000
3,863786	307,530408	127,395	0,053563	0,000000	0,000000
3,899757	331,310399	129,198	0,063599	0,000000	0,000000
3,935743	354,142754	131,001	0,073234	0,000000	0,000000
3,971709	377,712159	132,802	0,083180	0,000000	0,000000
4,007689	402,887570	134,606	0,093804	0,000000	0,000000
4,043726	427,200968	136,408	0,104064	0,000000	0,000000
4,079741	450,558631	138,209	0,113921	0,000000	0,000000
4,115771	474,048199	140,011	0,123834	0,000000	0,000000
4,151713	497,358422	141,820	0,133671	0,000000	0,000000
4,187730	521,578097	143,622	0,143892	0,000000	0,000000
4,223696	546,886571	145,427	0,154572	0,000000	0,000000
4,259674	569,993150	147,234	0,164323	0,000000	0,000000
4,295661	595,701968	149,039	0,175172	0,000000	0,000000
4,331697	619,168395	150,844	0,185075	0,000000	0,000000
4,343644	626,850146	152,646	0,188316	0,000000	0,000000
4,343660	625,768291	154,447	0,187860	0,000000	0,000000
4,343637	625,039340	156,250	0,187552	0,000000	0,000000
4,343668	624,067406	158,053	0,187142	0,000000	0,000000
4,343663	623,635821	159,858	0,186960	0,000000	0,000000
4,339639	620,289590	161,660	0,185548	0,000000	0,000000
4,303685	594,871196	163,466	0,174821	0,000000	0,000000
4,267686	567,908120	165,276	0,163443	0,000000	0,000000
4,231751	542,928253	167,080	0,152901	0,000000	0,000000
4,195724	517,619779	168,883	0,142221	0,000000	0,000000
4,159718	490,766625	170,688	0,130889	0,000000	0,000000
4,123729	467,520040	172,493	0,121079	0,000000	0,000000
4,087707	440,823089	174,300	0,109813	0,000000	0,000000
4,051716	417,121779	176,192	0,099811	0,000000	0,000000
4,015746	392,353654	177,999	0,089359	0,000000	0,000000
3,979757	367,490651	179,804	0,078867	0,000000	0,000000
3,943755	342,034073	181,606	0,068124	0,000000	0,000000
3,907733	317,657037	183,407	0,057837	0,000000	0,000000
3,871745	293,586622	185,210	0,047679	0,000000	0,000000
3,835753	268,889079	187,013	0,037257	0,000000	0,000000
3,799750	242,562389	188,816	0,026147	0,000000	0,000000
3,763709	219,111004	190,621	0,016250	0,000000	0,000000
3,727792	195,016291	192,429	0,006083	0,000000	0,000000
3,691754	170,820914	194,235	-0,004128	0,000000	0,000000
3,655697	146,553799	196,043	-0,014369	0,000000	0,000000
3,619740	121,253425	197,848	-0,025045	0,000000	0,000000
3,583788	96,963168	199,650	-0,035296	0,000000	0,000000
3,547804	73,276899	201,460	-0,045292	0,000000	0,000000
3,511790	49,802373	203,273	-0,055198	0,000000	0,000000
3,475793	24,736884	205,081	-0,065775	0,000000	0,000000
3,439794	-1,206818	206,887	-0,076724	0,000000	0,000000
3,403795	-25,379054	208,698	-0,086924	0,000000	0,000000
3,367836	-49,763033	210,505	-0,097214	0,000000	0,000000
3,331802	-73,089455	212,312	-0,107058	0,000000	0,000000
3,295865	-96,713242	214,118	-0,117027	0,000000	0,000000
3,259828	-119,716843	215,925	-0,126735	0,000000	0,000000
3,223834	-144,156361	217,730	-0,137048	0,000000	0,000000
3,187884	-168,038174	219,533	-0,147126	0,000000	0,000000
3,151868	-189,357089	221,336	-0,156123	0,000000	0,000000
3,115879	-213,090797	223,141	-0,166139	0,000000	0,000000
3,079884	-236,087456	224,946	-0,175843	0,000000	0,000000
3,043871	-260,581356	226,753	-0,186180	0,000000	0,000000
3,007880	-281,626046	228,562	-0,195061	0,000000	0,000000
2,971875	-304,677086	230,369	-0,204788	0,000000	0,000000
2,935924	-327,752425	232,177	-0,214526	0,000000	0,000000
2,899972	-351,517374	233,982	-0,224555	0,000000	0,000000
2,863898	-375,078680	235,786	-0,234498	0,000000	0,000000
2,827874	-395,864188	237,592	-0,243269	0,000000	0,000000
2,791890	-417,435343	239,399	-0,252372	0,000000	0,000000
2,755934	-440,023558	241,204	-0,261904	0,000000	0,000000
2,719915	-462,166303	243,015	-0,271249	0,000000	0,000000
2,683915	-483,971184	244,821	-0,280450	0,000000	0,000000
2,647922	-504,161961	246,629	-0,288971	0,000000	0,000000
2,611920	-528,412878	248,431	-0,299205	0,000000	0,000000
2,575925	-548,493733	250,235	-0,307679	0,000000	0,000000
2,539980	-569,843889	252,043	-0,316688	0,000000	0,000000
2,503942	-589,328856	253,851	-0,324911	0,000000	0,000000
2,467894	-607,544524	255,656	-0,332598	0,000000	0,000000
2,431942	-626,536582	257,462	-0,340613	0,000000	0,000000
2,395924	-646,679919	259,264	-0,349113	0,000000	0,000000
2,359952	-665,984384	261,068	-0,357260	0,000000	0,000000
2,323922	-682,617187	262,873	-0,364279	0,000000	0,000000
2,287940	-700,550531	264,679	-0,371847	0,000000	0,000000
2,251940	-718,891162	266,485	-0,379586	0,000000	0,000000
2,215957	-735,053040	268,289	-0,386407	0,000000	0,000000
2,179937	-750,156204	270,099	-0,392780	0,000000	0,000000
2,143943	-767,721601	271,907	-0,400193	0,000000	0,000000
2,107910	-785,012774	273,714	-0,407490	0,000000	0,000000
2,071924	-798,030908	275,516	-0,412983	0,000000	0,000000
2,035905	-809,615438	277,321	-0,417872	0,000000	0,000000
1,999991	-820,259275	279,124	-0,422364	0,000000	0,000000
1,963964	-829,916136	280,929	-0,426439	0,000000	0,000000
1,927908	-835,324256	282,736	-0,428721	0,000000	0,000000
1,891937	-844,071664	284,540	-0,432413	0,000000	0,000000
1,855945	-843,538257	286,345	-0,432188	0,000000	0,000000
1,819943	-828,952301	288,149	-0,426032	0,000000	0,000000
1,783967	-811,998991	289,953	-0,418878	0,000000	0,000000
1,747974	-1,042515	291,759	-0,076654	0,000000	0,000000
1,711985	-0,446627	293,564	-0,076403	0,000000	0,000000
1,675935	-0,055539	295,370	-0,076238	0,000000	0,000000
1,639987	-0,180502	297,174	-0,076291	0,000000	0,000000
1,603965	0,023141	298,982	-0,076205	0,000000	0,000000
1,567973	-0,234884	300,789	-0,076313	0,000000	0,000000
1,532029	-0,242984	302,595	-0,076317	0,000000	0,000000
1,495958	-0,141162	304,404	-0,076274	0,000000	0,000000
1,460010	-0,101822	306,208	-0,076257	0,000000	0,000000
1,423983	-0,070581	308,014	-0,076244	0,000000	0,000000
1,387999	-0,156204	309,817	-0,076280	0,000000	0,000000
1,351926	-0,313564	311,626	-0,076347	0,000000	0,000000
1,343966	-0,078680	312,026	-0,076248	0,000000	0,000000