Folder: Nanoindentation_Analysis/Nanoindentation Datenauswertung/data/labview program test

File: program test-1
Quasi static measurement routine
Tip parameters (shape,radius, material...)
06.07.2022

Piezo position[nm]	MEMS displ.[nm]	Time[ms]	Cap [pf]
eoh
2,455983	0,099006	0,029	-0,090437
2,460962	-0,030377	0,529	-0,090493
2,466005	3,627232	1,029	-0,088906
2,471011	7,292717	1,530	-0,087315
2,475954	10,936825	2,030	-0,085733
2,480962	13,900265	2,530	-0,084447
2,486025	17,512871	3,030	-0,082879
2,491013	20,394180	3,531	-0,081629
2,495985	23,481378	4,031	-0,080289
2,500989	26,955600	4,532	-0,078781
2,505955	31,117242	5,032	-0,076975
2,510946	33,220001	5,532	-0,076063
2,515970	35,842544	6,032	-0,074924
2,520973	38,700227	6,533	-0,073684
2,525961	42,495095	7,033	-0,072037
2,530946	44,881372	7,534	-0,071001
2,536021	47,731180	8,034	-0,069765
2,540986	50,521358	8,535	-0,068554
2,545990	53,226031	9,035	-0,067380
2,550930	56,198472	9,536	-0,066090
2,555955	59,422928	10,036	-0,064690
2,561003	62,547253	10,536	-0,063334
2,565995	68,712648	11,036	-0,060659
2,570911	68,446006	11,536	-0,060774
2,575954	71,402695	12,036	-0,059491
2,581002	74,055615	12,536	-0,058340
2,585966	80,190632	13,037	-0,055677
2,590945	79,968993	13,537	-0,055773
2,595905	82,682667	14,037	-0,054596
2,601009	85,556101	14,537	-0,053349
2,605994	91,378348	15,037	-0,050822
2,610971	90,616674	15,537	-0,051152
2,615940	93,169463	16,038	-0,050044
2,620968	96,073274	16,538	-0,048784
2,626010	99,288729	17,039	-0,047389
2,630949	101,941649	17,539	-0,046237
2,635982	104,921965	18,039	-0,044944
2,641033	107,626638	18,539	-0,043770
2,645976	113,830285	19,039	-0,041078
2,650943	113,258749	19,540	-0,041326
2,655969	115,888042	20,040	-0,040185
2,655946	118,890859	20,540	-0,038881
2,655948	118,571339	21,040	-0,039020
2,655952	118,426204	21,540	-0,039083
2,655941	117,854668	22,040	-0,039331
2,655995	117,808540	22,541	-0,039351
2,655961	117,519396	23,041	-0,039477
2,656007	117,739910	23,542	-0,039381
2,656027	117,595901	24,042	-0,039443
2,655958	117,519396	24,543	-0,039477
2,655932	117,412514	25,044	-0,039523
2,650953	117,694907	25,544	-0,039400
2,645978	113,898915	26,045	-0,041048
2,640924	110,560826	26,545	-0,042497
2,635926	103,221981	27,045	-0,045682
2,630974	103,054345	27,545	-0,045754
2,625952	99,358484	28,046	-0,047358
2,620908	96,347791	28,546	-0,048665
2,615980	92,369537	29,046	-0,050392
2,610942	85,632605	29,547	-0,053315
2,605964	85,251206	30,047	-0,053481
2,600966	81,715105	30,548	-0,055016
2,595937	77,492710	31,048	-0,056848
2,590956	72,836037	31,548	-0,058869
2,585971	71,341941	32,048	-0,059518
2,580949	65,130418	32,548	-0,062213
2,575973	64,033473	33,048	-0,062689
2,570969	59,841455	33,548	-0,064509
2,565966	56,686753	34,048	-0,065878
2,560956	53,439795	34,548	-0,067287
2,555952	49,590924	35,048	-0,068958
2,550988	46,008695	35,548	-0,070512
2,545993	42,716734	36,048	-0,071941
2,540955	38,578719	36,549	-0,073737
2,535937	35,354263	37,049	-0,075136
2,530957	31,810286	37,549	-0,076674
2,525953	28,328188	38,050	-0,078186
2,520934	24,685205	38,550	-0,079767
2,515950	17,726635	39,051	-0,082787
2,510961	17,605127	39,552	-0,082839
2,505893	14,366044	40,052	-0,084245
2,500938	10,600428	40,552	-0,085879
2,495922	3,406718	41,052	-0,089001
2,490981	3,618232	41,552	-0,088910
2,485979	-0,100131	42,053	-0,090523
2,480924	-3,810619	42,554	-0,092134
2,475946	-7,186960	43,054	-0,093599
2,471002	-10,280908	43,554	-0,094942
2,465949	-14,008272	44,054	-0,096560
2,460974	-17,772762	44,555	-0,098193
2,455979	-20,036407	45,055	-0,099176

File: program test-2
Quasi static measurement routine
Tip parameters (shape,radius, material...)
06.07.2022

Piezo position[nm]	MEMS displ.[nm]	Time[ms]	Cap [pf]
eoh
2,456038	-0,258767	0,058	-0,090880
2,466033	-1,478345	0,558	-0,091410
2,476068	5,449849	1,059	-0,088403
2,486115	11,782879	1,559	-0,085654
2,496092	17,582625	2,060	-0,083137
2,506069	23,198985	2,560	-0,080700
2,516095	29,737903	3,060	-0,077862
2,526049	42,092319	3,561	-0,072500
2,536086	40,476716	4,062	-0,073201
2,546081	46,619609	4,563	-0,070535
2,556037	53,029144	5,063	-0,067753
2,566050	58,249478	5,563	-0,065488
2,576079	64,476752	6,063	-0,062785
2,586122	70,246121	6,563	-0,060281
2,596139	76,502646	7,064	-0,057566
2,606059	86,676672	7,564	-0,053150
2,616087	88,574669	8,066	-0,052327
2,626111	94,792942	8,567	-0,049628
2,636090	105,303364	9,067	-0,045066
2,646081	106,644450	9,567	-0,044484
2,656063	113,952918	10,067	-0,041313
2,656064	119,691910	10,567	-0,038822
2,656030	119,273383	11,068	-0,039003
2,656009	119,318386	11,568	-0,038984
2,656081	118,861607	12,068	-0,039182
2,656060	119,082121	12,569	-0,039086
2,656048	119,128249	13,070	-0,039066
2,656035	119,189003	13,570	-0,039040
2,656017	118,922361	14,070	-0,039156
2,656051	118,770476	14,570	-0,039222
2,655956	118,602841	15,071	-0,039294
2,646001	118,853732	15,571	-0,039186
2,636013	111,781529	16,071	-0,042255
2,626033	104,235671	16,571	-0,045530
2,615998	97,125216	17,071	-0,048616
2,606009	90,137394	17,572	-0,051648
2,596023	83,681731	18,072	-0,054450
2,586012	76,159499	18,572	-0,057715
2,576025	69,170552	19,072	-0,060748
2,566046	55,452549	19,573	-0,066702
2,556005	50,933135	20,074	-0,068663
2,545999	47,350905	20,574	-0,070218
2,536065	40,415962	21,075	-0,073228
2,525994	33,442765	21,575	-0,076254
2,516011	26,385189	22,075	-0,079317
2,505969	19,335487	22,575	-0,082376
2,495994	12,231783	23,075	-0,085459
2,485940	1,280332	23,575	-0,090212
2,475990	-2,316523	24,075	-0,091773
2,466004	-12,163153	24,575	-0,096047
2,456020	-20,478561	25,075	-0,099656

File: program test-3
Quasi static measurement routine
Tip parameters (shape,radius, material...)
06.07.2022

Piezo position[nm]	MEMS displ.[nm]	Time[ms]	Cap [pf]
eoh
2,454036	-0,145134	0,026	-0,091760
2,479093	-1,463719	0,526	-0,092333
2,504133	14,693440	1,026	-0,085320
2,529081	29,097737	1,526	-0,079069
2,554161	44,469596	2,027	-0,072397
2,579082	58,912145	2,527	-0,066129
2,604049	74,132119	3,027	-0,059524
2,629123	89,031448	3,527	-0,053058
2,654127	104,326802	4,027	-0,046419
2,654021	120,384955	4,527	-0,039450
2,654002	120,202693	5,027	-0,039529
2,654010	120,126188	5,527	-0,039563
2,654028	120,035057	6,027	-0,039602
2,653998	120,103687	6,527	-0,039572
2,653960	120,132939	7,028	-0,039560
2,654055	120,247696	7,528	-0,039510
2,654013	120,027182	8,028	-0,039605
2,654049	120,080060	8,528	-0,039583
2,654021	119,988929	9,029	-0,039622
2,628998	110,111922	9,529	-0,043909
2,603999	97,559494	10,030	-0,049356
2,578953	84,321897	10,530	-0,055102
2,553969	63,409058	11,030	-0,064178
2,528968	48,752745	11,531	-0,070539
2,503963	31,132993	12,031	-0,078186
2,478992	13,352355	12,531	-0,085902
2,453969	-4,580168	13,032	-0,093685

File: program test-3-2
Quasi static measurement routine
Tip parameters (shape,radius, material...)
06.07.2022

Piezo position[nm]	MEMS displ.[nm]	Time[ms]	Cap [pf]
eoh
2,457950	0,145134	0,036	-0,091162
2,483034	5,922379	0,536	-0,088654
2,508019	15,700380	1,036	-0,084411
2,533022	29,883038	1,537	-0,078255
2,557904	44,943251	2,037	-0,071719
2,583000	59,620941	2,538	-0,065349
2,608105	74,925295	3,038	-0,058707
2,632971	91,448103	3,539	-0,051536
2,658007	123,274140	4,040	-0,037724
2,657945	122,626098	4,540	-0,038005
2,657965	122,375207	5,040	-0,038114
2,657941	122,230073	5,540	-0,038177
2,657909	122,672226	6,041	-0,037985
2,657935	122,078188	6,541	-0,038243
2,657973	122,032060	7,041	-0,038263
2,657962	122,177194	7,542	-0,038200
2,657964	122,420210	8,042	-0,038094
2,657918	122,207571	8,543	-0,038187
2,658009	122,290827	9,043	-0,038150
2,632933	120,896862	9,543	-0,038755
2,607903	104,586694	10,044	-0,045834
2,582930	86,898311	10,544	-0,053511
2,557947	68,996166	11,045	-0,061280
2,532886	51,154774	11,545	-0,069023
2,507950	15,761134	12,045	-0,084384
2,482828	15,852265	12,545	-0,084345
2,457878	-2,217517	13,046	-0,092187

File: program test-4
Quasi static measurement routine
Tip parameters (shape,radius, material...)
06.07.2022

Piezo position[nm]	MEMS displ.[nm]	Time[ms]	Cap [pf]
eoh
2,459970	-0,006750	0,076	-0,091082
2,463974	-0,403901	0,176	-0,091254
2,467984	2,744051	0,276	-0,089888
2,471989	5,693989	0,377	-0,088608
2,475966	9,153586	0,478	-0,087106
2,480044	10,769189	0,578	-0,086405
2,483976	13,154342	0,678	-0,085370
2,488004	15,403361	0,778	-0,084394
2,492024	17,689507	0,878	-0,083402
2,496038	19,945276	0,978	-0,082423
2,499993	22,354056	1,079	-0,081377
2,503982	24,662703	1,179	-0,080375
2,507992	28,687086	1,279	-0,078629
2,512045	30,195808	1,379	-0,077974
2,515972	33,884919	1,479	-0,076373
2,520022	33,884919	1,579	-0,076373
2,524011	35,912298	1,679	-0,075493
2,527961	38,350329	1,779	-0,074435
2,532018	40,926744	1,880	-0,073317
2,535990	43,464907	1,980	-0,072215
2,539992	45,690299	2,081	-0,071250
2,544007	48,929381	2,182	-0,069844
2,548005	51,009640	2,283	-0,068941
2,551962	52,876134	2,383	-0,068131
2,555988	55,643811	2,483	-0,066930
2,560042	57,845577	2,583	-0,065974
2,564021	62,563004	2,683	-0,063927
2,567968	62,693512	2,783	-0,063870
2,571962	65,010036	2,883	-0,062865
2,575972	67,449192	2,984	-0,061806
2,580049	72,600896	3,085	-0,059570
2,584001	72,288126	3,186	-0,059706
2,587960	74,658653	3,286	-0,058677
2,591971	77,013429	3,386	-0,057655
2,596000	79,779981	3,486	-0,056455
2,599986	82,081878	3,586	-0,055456
2,604014	84,756174	3,686	-0,054295
2,608021	87,348340	3,786	-0,053170
2,611986	89,862876	3,886	-0,052079
2,616030	91,936384	3,986	-0,051179
2,619933	94,695060	4,086	-0,049981
2,623988	96,904702	4,186	-0,049022
2,627956	99,717382	4,286	-0,047802
2,631962	102,102535	4,387	-0,046767
2,635958	104,884838	4,487	-0,045559
2,640025	107,163108	4,587	-0,044570
2,643962	112,940353	4,687	-0,042063
2,648007	113,152992	4,787	-0,041971
2,651998	115,737282	4,887	-0,040849
2,656004	118,350824	4,987	-0,039715
2,659965	121,034121	5,087	-0,038550
2,659940	123,700542	5,187	-0,037393
2,659978	123,922181	5,288	-0,037297
2,659965	123,419274	5,389	-0,037515
2,659939	123,609411	5,489	-0,037433
2,659976	123,502529	5,589	-0,037479
2,659962	123,655539	5,690	-0,037413
2,659941	123,586910	5,791	-0,037442
2,659957	123,464277	5,891	-0,037496
2,659994	123,358520	5,991	-0,037542
2,660010	123,571159	6,091	-0,037449
2,659974	123,556533	6,192	-0,037456
2,659971	123,419274	6,292	-0,037515
2,659990	123,464277	6,392	-0,037496
2,659994	123,312392	6,492	-0,037562
2,660002	123,373146	6,592	-0,037535
2,660008	123,427149	6,692	-0,037512
2,660016	123,427149	6,792	-0,037512
2,659986	123,724168	6,892	-0,037383
2,659968	123,342769	6,993	-0,037548
2,660003	123,480028	7,093	-0,037489
2,659950	123,427149	7,193	-0,037512
2,659954	123,685916	7,293	-0,037399
2,659978	123,472152	7,393	-0,037492
2,659959	123,312392	7,493	-0,037562
2,659971	123,640913	7,593	-0,037419
2,659950	123,464277	7,693	-0,037496
2,659970	123,899680	7,793	-0,037307
2,660005	123,388897	7,893	-0,037528
2,659935	123,472152	7,994	-0,037492
2,659979	123,160507	8,095	-0,037627
2,659975	123,534031	8,196	-0,037465
2,659939	123,449651	8,296	-0,037502
2,659956	123,251638	8,397	-0,037588
2,659973	123,205510	8,498	-0,037608
2,660007	123,274140	8,598	-0,037578
2,659925	123,334893	8,698	-0,037552
2,660026	123,229137	8,798	-0,037598
2,660006	123,358520	8,898	-0,037542
2,659952	123,640913	8,999	-0,037419
2,659982	123,136881	9,100	-0,037638
2,659984	123,746670	9,200	-0,037373
2,659946	123,366395	9,300	-0,037538
2,660013	123,350644	9,400	-0,037545
2,659989	123,388897	9,501	-0,037528
2,659968	123,205510	9,601	-0,037608
2,659977	123,328143	9,702	-0,037555
2,659978	123,320267	9,802	-0,037558
2,659968	123,235887	9,902	-0,037595
2,660007	123,571159	10,002	-0,037449
2,659971	123,130130	10,102	-0,037641
2,655991	123,274140	10,202	-0,037578
2,651968	117,444016	10,302	-0,040108
2,647969	117,520521	10,402	-0,040075
2,643960	114,654963	10,502	-0,041319
2,639985	111,759028	10,602	-0,042576
2,635949	108,900220	10,702	-0,043816
2,632036	106,034661	10,802	-0,045060
2,627980	103,138726	10,902	-0,046317
2,624005	100,182037	11,002	-0,047600
2,619997	94,733313	11,102	-0,049965
2,616006	95,174341	11,202	-0,049773
2,611929	92,050016	11,302	-0,051129
2,607990	89,032573	11,402	-0,052439
2,603968	86,234519	11,502	-0,053653
2,599998	83,674980	11,602	-0,054764
2,595994	80,565281	11,702	-0,056114
2,591922	77,950614	11,802	-0,057249
2,588002	72,074363	11,902	-0,059799
2,583988	71,853849	12,002	-0,059895
2,579983	69,155926	12,102	-0,061065
2,575980	66,092355	12,202	-0,062395
2,571944	60,703260	12,302	-0,064734
2,567924	60,703260	12,402	-0,064734
2,563919	57,617187	12,502	-0,066073
2,559960	54,591869	12,602	-0,067386
2,555979	49,226400	12,702	-0,069715
2,551982	49,210649	12,803	-0,069722
2,547963	46,314714	12,903	-0,070979
2,543942	43,761926	13,004	-0,072086
2,539974	37,778793	13,104	-0,074683
2,535995	37,931803	13,204	-0,074617
2,532013	35,332886	13,304	-0,075745
2,527956	32,360446	13,404	-0,077035
2,523964	29,281124	13,505	-0,078371
2,519907	26,271556	13,605	-0,079677
2,515943	23,275490	13,705	-0,080978
2,511944	21,233484	13,805	-0,081864
2,508000	15,326856	13,906	-0,084427
2,503982	14,732818	14,006	-0,084685
2,499989	12,362291	14,106	-0,085714
2,496000	9,282969	14,206	-0,087050
2,491946	3,650859	14,306	-0,089495
2,487957	3,605856	14,406	-0,089514
2,483970	0,914684	14,506	-0,090682
2,479955	-1,683108	14,606	-0,091810
2,475997	-7,613362	14,706	-0,094383
2,471962	-7,536857	14,806	-0,094350
2,468037	-11,179841	14,908	-0,095931
2,463938	-12,940578	15,008	-0,096695
2,459975	-18,572689	15,108	-0,099140

File: program test-4-2
Quasi static measurement routine
Tip parameters (shape,radius, material...)
06.07.2022

Piezo position[nm]	MEMS displ.[nm]	Time[ms]	Cap [pf]
eoh
2,539965	0,183387	0,036	-0,071660
2,543896	0,922559	0,136	-0,071339
2,547930	2,736175	0,237	-0,070552
2,551949	5,991008	0,337	-0,069139
2,555923	8,627052	0,437	-0,067995
2,559915	11,584866	0,537	-0,066711
2,563915	14,541556	0,637	-0,065428
2,567960	17,063967	0,737	-0,064333
2,571917	19,190353	0,838	-0,063411
2,575918	21,811771	0,939	-0,062273
2,579902	24,228426	1,040	-0,061224
2,583936	27,108610	1,140	-0,059974
2,587930	29,311501	1,240	-0,059018
2,591886	32,001548	1,340	-0,057851
2,595932	34,204439	1,440	-0,056895
2,599880	37,009244	1,540	-0,055677
2,603885	39,584533	1,640	-0,054560
2,607940	44,081446	1,740	-0,052608
2,611958	44,454970	1,840	-0,052446
2,615937	46,504851	1,940	-0,051556
2,619893	49,652803	2,041	-0,050190
2,623927	52,007578	2,141	-0,049168
2,627960	54,515364	2,241	-0,048080
2,631919	57,472053	2,341	-0,046796
2,635954	59,780701	2,441	-0,045794
2,639925	62,120851	2,541	-0,044779
2,643935	67,197176	2,641	-0,042576
2,647944	69,148050	2,742	-0,041729
2,651948	70,908788	2,842	-0,040965
2,655983	73,598835	2,942	-0,039797
2,659979	76,494771	3,042	-0,038541
2,663912	78,940677	3,142	-0,037479
2,667991	81,547469	3,242	-0,036348
2,671994	84,489532	3,342	-0,035071
2,675950	87,104200	3,442	-0,033936
2,679897	89,671614	3,542	-0,032822
2,683950	92,201901	3,643	-0,031724
2,687953	95,121463	3,743	-0,030457
2,691930	98,230037	3,843	-0,029107
2,695955	100,113407	3,944	-0,028290
2,699929	100,234915	4,045	-0,028237
2,703973	104,639572	4,146	-0,026326
2,707883	104,251422	4,246	-0,026494
2,711862	105,981783	4,346	-0,025743
2,715927	108,031664	4,446	-0,024854
2,719941	110,606954	4,546	-0,023736
2,723923	112,726590	4,646	-0,022816
2,727963	114,806848	4,746	-0,021913
2,731898	114,806848	4,846	-0,021913
2,735965	116,773474	4,946	-0,021060
2,739925	119,089997	5,046	-0,020054
2,739907	121,071249	5,147	-0,019194
2,739887	120,842859	5,247	-0,019293
2,739912	120,347827	5,348	-0,019508
2,739936	120,194817	5,449	-0,019575
2,739910	120,103687	5,550	-0,019614
2,739903	120,004680	5,651	-0,019657
2,739895	119,851671	5,751	-0,019724
2,739934	119,661533	5,851	-0,019806
2,739877	119,814543	5,953	-0,019740
2,739935	119,516399	6,054	-0,019869
2,739888	119,364514	6,154	-0,019935
2,739909	119,318386	6,254	-0,019955
2,739900	119,532150	6,354	-0,019862
2,739928	119,181128	6,454	-0,020015
2,739919	119,478147	6,554	-0,019886
2,739944	119,356639	6,654	-0,019938
2,739886	118,975239	6,754	-0,020104
2,739921	119,166502	6,854	-0,020021
2,739913	119,280134	6,954	-0,019972
2,739928	118,998866	7,054	-0,020094
2,739882	119,174377	7,154	-0,020018
2,739923	118,922361	7,254	-0,020127
2,739885	118,930237	7,354	-0,020124
2,739901	119,021367	7,454	-0,020084
2,739937	118,701847	7,554	-0,020223
2,739879	118,732224	7,654	-0,020209
2,739895	118,975239	7,755	-0,020104
2,739917	118,930237	7,855	-0,020124
2,739945	118,990990	7,956	-0,020097
2,739882	119,089997	8,056	-0,020054
2,739868	118,944862	8,156	-0,020117
2,739930	119,051744	8,256	-0,020071
2,739937	118,906610	8,356	-0,020134
2,739873	118,655719	8,456	-0,020243
2,739900	118,975239	8,556	-0,020104
2,739941	118,770476	8,656	-0,020193
2,739908	118,526336	8,756	-0,020299
2,739926	118,990990	8,856	-0,020097
2,739892	119,005616	8,956	-0,020091
2,739911	118,571339	9,056	-0,020279
2,739867	118,609591	9,157	-0,020263
2,739907	118,457706	9,257	-0,020329
2,739881	118,876233	9,357	-0,020147
2,739906	118,837981	9,457	-0,020164
2,739924	119,005616	9,557	-0,020091
2,739938	118,823355	9,657	-0,020170
2,739891	118,754725	9,757	-0,020200
2,739883	119,013492	9,857	-0,020087
2,739941	118,770476	9,957	-0,020193
2,739990	118,488083	10,057	-0,020315
2,735890	117,892920	10,158	-0,020574
2,731960	115,164621	10,259	-0,021758
2,727883	112,306938	10,359	-0,022998
2,723907	110,295309	10,460	-0,023871
2,719926	106,888591	10,560	-0,025350
2,715908	104,395431	10,660	-0,026432
2,711921	101,721135	10,760	-0,027592
2,707923	98,649689	10,860	-0,028925
2,703916	95,830258	10,961	-0,030149
2,699901	92,621553	11,061	-0,031542
2,695899	90,266777	11,161	-0,032563
2,691894	87,835496	11,262	-0,033619
2,687839	81,638600	11,362	-0,036308
2,683903	81,166070	11,462	-0,036513
2,679864	78,659409	11,563	-0,037601
2,675884	76,022240	11,664	-0,038746
2,671853	72,981171	11,764	-0,040065
2,667872	70,291124	11,865	-0,041233
2,663913	67,379437	11,966	-0,042497
2,659898	64,300115	12,066	-0,043833
2,655933	60,444493	12,166	-0,045506
2,651931	58,774887	12,267	-0,046231
2,647879	55,673063	12,367	-0,047577
2,643894	52,693872	12,468	-0,048870
2,639922	50,147834	12,568	-0,049975
2,635913	47,671551	12,669	-0,051050
2,631937	44,638357	12,769	-0,052366
2,627911	42,229578	12,870	-0,053412
2,623890	38,937617	12,971	-0,054840
2,619940	35,979803	13,072	-0,056124
2,615898	33,374136	13,172	-0,057255
2,611928	30,333066	13,272	-0,058575
2,607876	27,688022	13,372	-0,059723
2,603923	24,769585	13,472	-0,060989
2,599917	21,888276	13,572	-0,062240
2,595878	19,107098	13,673	-0,063447
2,591887	16,522807	13,773	-0,064568
2,587875	13,375981	13,873	-0,065934
2,583959	10,601553	13,973	-0,067138
2,579916	7,530107	14,073	-0,068471
2,575901	4,679174	14,173	-0,069708
2,571888	2,172514	14,273	-0,070796
2,567927	-1,036191	14,373	-0,072189
2,563889	-3,855622	14,473	-0,073413
2,559856	-6,583921	14,573	-0,074597
2,555869	-9,632867	14,674	-0,075920
2,551880	-14,030773	14,774	-0,077829
2,547905	-16,064903	14,875	-0,078711
2,543854	-18,069781	14,975	-0,079582
2,539906	-20,699075	15,075	-0,080723

File: program test-5
Quasi static measurement routine
Tip parameters (shape,radius, material...)
06.07.2022

Piezo position[nm]	MEMS displ.[nm]	Time[ms]	Cap [pf]
eoh
2,534017	0,373524	0,082	-0,072265
2,536983	2,035255	0,162	-0,071544
2,539991	3,802743	0,278	-0,070777
2,544038	5,906628	0,411	-0,069864
2,547009	8,132020	0,492	-0,068898
2,550008	10,121148	0,572	-0,068035
2,553051	13,207220	0,653	-0,066695
2,556020	15,082715	0,733	-0,065881
2,560022	15,967022	0,848	-0,065498
2,562997	18,572689	0,928	-0,064367
2,565995	20,219794	1,008	-0,063652
2,568962	22,604947	1,089	-0,062617
2,571972	24,640202	1,169	-0,061733
2,575992	26,133173	1,292	-0,061085
2,579042	27,886035	1,381	-0,060325
2,581989	29,997795	1,462	-0,059408
2,584975	31,841788	1,542	-0,058608
2,588050	33,419139	1,654	-0,057923
2,591999	34,860356	1,734	-0,057298
2,595036	36,346576	1,816	-0,056653
2,598019	37,938553	1,898	-0,055962
2,601010	40,934620	2,011	-0,054662
2,603992	42,146322	2,092	-0,054136
2,607946	43,754050	2,173	-0,053438
2,611005	45,232395	2,254	-0,052796
2,614039	46,787244	2,335	-0,052122
2,617024	49,499793	2,444	-0,050944
2,620031	51,550799	2,524	-0,050054
2,624037	52,800754	2,605	-0,049512
2,627017	54,751629	2,687	-0,048665
2,630018	56,732881	2,822	-0,047805
2,633055	59,049404	2,903	-0,046800
2,636039	61,062158	2,983	-0,045926
2,639997	62,883650	3,063	-0,045136
2,642977	65,420687	3,143	-0,044035
2,646000	65,695204	3,259	-0,043916
2,649007	68,401003	3,340	-0,042741
2,652002	69,864721	3,421	-0,042106
2,656009	71,632209	3,502	-0,041339
2,659002	73,110554	3,608	-0,040697
2,662035	74,970298	3,688	-0,039890
2,665012	77,530962	3,769	-0,038779
2,668015	78,978930	3,849	-0,038150
2,672012	80,564156	3,929	-0,037462
2,675042	82,119006	4,038	-0,036788
2,677993	84,168887	4,120	-0,035898
2,681029	86,737426	4,201	-0,034783
2,684024	88,231522	4,282	-0,034135
2,687958	89,770620	4,362	-0,033467
2,690993	92,088269	4,477	-0,032461
2,694010	93,352850	4,557	-0,031912
2,696966	95,220469	4,637	-0,031102
2,700006	97,034085	4,718	-0,030314
2,704029	98,199660	4,841	-0,029809
2,707052	100,440803	4,921	-0,028836
2,710011	102,056407	5,002	-0,028135
2,713006	104,716077	5,082	-0,026980
2,715994	106,324930	5,163	-0,026282
2,720016	107,963035	5,283	-0,025571
2,722992	110,180552	5,363	-0,024609
2,726035	111,903037	5,444	-0,023861
2,728991	114,730343	5,524	-0,022634
2,732009	116,246940	5,638	-0,021976
2,733961	118,403703	5,719	-0,021040
2,733971	118,175313	5,800	-0,021139
2,733981	118,030179	5,882	-0,021202
2,733970	117,946924	5,962	-0,021238
2,733979	117,977301	6,092	-0,021225
2,733970	118,007677	6,172	-0,021212
2,733972	118,106684	6,253	-0,021169
2,733956	117,939048	6,334	-0,021242
2,734000	117,855793	6,458	-0,021278
2,733942	117,649905	6,540	-0,021367
2,734005	117,908671	6,620	-0,021255
2,734021	117,999802	6,700	-0,021215
2,734027	117,923297	6,821	-0,021249
2,733971	117,725284	6,901	-0,021334
2,733954	117,619528	6,981	-0,021380
2,733947	117,611652	7,063	-0,021384
2,734007	117,779288	7,143	-0,021311
2,734003	117,931173	7,259	-0,021245
2,734014	117,717409	7,340	-0,021338
2,733943	117,733160	7,422	-0,021331
2,733987	117,763537	7,502	-0,021318
2,734003	117,139122	7,620	-0,021589
2,733971	117,672406	7,700	-0,021357
2,733972	117,923297	7,782	-0,021249
2,733969	117,702783	7,863	-0,021344
2,733985	117,512646	7,944	-0,021427
2,734060	117,702783	8,064	-0,021344
2,733984	117,840042	8,144	-0,021285
2,734012	117,611652	8,225	-0,021384
2,734031	117,725284	8,305	-0,021334
2,734010	117,657780	8,423	-0,021364
2,734003	117,634154	8,504	-0,021374
2,734003	117,634154	8,585	-0,021374
2,734005	117,642029	8,665	-0,021371
2,733975	117,504770	8,745	-0,021430
2,733975	117,649905	8,855	-0,021367
2,733932	117,787163	8,936	-0,021308
2,734015	117,634154	9,017	-0,021374
2,733978	117,626278	9,098	-0,021377
2,734012	117,611652	9,217	-0,021384
2,733986	117,588026	9,297	-0,021394
2,733944	117,405764	9,379	-0,021473
2,734019	117,428265	9,459	-0,021463
2,733959	117,657780	9,539	-0,021364
2,734005	117,565524	9,655	-0,021404
2,733993	117,793914	9,735	-0,021305
2,734028	117,474393	9,817	-0,021443
2,733937	117,680282	9,897	-0,021354
2,733997	117,490144	10,016	-0,021437
2,733986	117,672406	10,098	-0,021357
2,733945	117,512646	10,178	-0,021427
2,733987	117,573400	10,258	-0,021400
2,733991	117,474393	10,338	-0,021443
2,733981	117,390013	10,468	-0,021480
2,733971	117,367512	10,548	-0,021490
2,733960	117,215627	10,628	-0,021556
2,734003	117,817540	10,709	-0,021294
2,733996	117,672406	10,828	-0,021357
2,733945	117,581275	10,909	-0,021397
2,733957	117,375387	10,989	-0,021486
2,733952	117,367512	11,069	-0,021490
2,734027	117,535147	11,149	-0,021417
2,733971	117,284256	11,262	-0,021526
2,730985	115,988173	11,343	-0,022088
2,727987	113,900040	11,423	-0,022995
2,724024	111,682523	11,503	-0,023957
2,721011	109,762025	11,611	-0,024791
2,717957	107,779648	11,691	-0,025651
2,714986	104,434809	11,771	-0,027103
2,711960	102,666196	11,852	-0,027870
2,707962	100,432928	11,934	-0,028839
2,704994	98,794823	12,056	-0,029550
2,701943	95,913513	12,137	-0,030801
2,698983	93,269594	12,217	-0,031948
2,695974	91,112831	12,297	-0,032884
2,691969	88,787307	12,378	-0,033894
2,689010	85,678733	12,491	-0,035243
2,685953	84,542411	12,572	-0,035736
2,682985	81,967121	12,652	-0,036854
2,679955	79,764230	12,732	-0,037810
2,675977	77,889860	12,851	-0,038623
2,672985	75,739847	12,932	-0,039556
2,669972	73,362570	13,012	-0,040588
2,666990	70,527389	13,092	-0,041818
2,663973	68,583264	13,172	-0,042662
2,659974	66,351121	13,290	-0,043631
2,657014	64,071726	13,370	-0,044620
2,654007	62,273861	13,450	-0,045400
2,650970	58,974024	13,530	-0,046833
2,647988	57,213287	13,650	-0,047597
2,643992	54,796632	13,730	-0,048646
2,640961	52,358601	13,810	-0,049704
2,638009	50,642866	13,890	-0,050448
2,634982	47,831311	14,056	-0,051668
2,632006	45,521538	14,136	-0,052671
2,627926	43,532411	14,217	-0,053534
2,624998	41,520782	14,298	-0,054407
2,621961	39,265013	14,379	-0,055386
2,619029	36,376953	14,495	-0,056640
2,615943	34,196564	14,575	-0,057586
2,611953	31,583021	14,655	-0,058720
2,608957	29,692900	14,735	-0,059541
2,606001	27,901786	14,848	-0,060318
2,602973	25,135234	14,928	-0,061519
2,600007	24,563697	15,009	-0,061767
2,596007	20,258047	15,090	-0,063635
2,592988	18,366800	15,170	-0,064456
2,590003	16,561060	15,302	-0,065240
2,586952	13,665125	15,382	-0,066497
2,584014	11,439732	15,462	-0,067462
2,580010	9,335847	15,542	-0,068375
2,576940	7,537982	15,653	-0,069156
2,573992	5,159580	15,734	-0,070188
2,570983	2,218642	15,814	-0,071464
2,567999	-0,113632	15,895	-0,072477
2,563990	-1,904747	15,975	-0,073254
2,561001	-4,008632	16,091	-0,074167
2,557973	-6,401660	16,171	-0,075206
2,554984	-9,122084	16,251	-0,076386
2,551969	-11,470109	16,331	-0,077405
2,548014	-12,460172	16,454	-0,077835
2,544970	-15,493367	16,535	-0,079151
2,541949	-17,764887	16,615	-0,080137
2,539006	-20,363803	16,696	-0,081265
2,535942	-22,520566	16,776	-0,082201
2,534037	-23,176483	16,849	-0,082486