Folder: Nanoindentation_Analysis/Nanoindentation Datenauswertung/data/labview program test (part 2)

File: program test-5-2
Quasi static measurement routine
Tip parameters (shape,radius, material...)
06.07.2022

Piezo position[nm]	MEMS displ.[nm]	Time[ms]	Cap [pf]
eoh
2,357552	0,182262	0,030	-0,090874
2,361766	-26,902722	0,130	-0,102629
2,365756	-26,872345	0,230	-0,102616
2,369753	-27,231243	0,330	-0,102771
2,373768	-26,902722	0,430	-0,102629
2,377790	-26,979227	0,530	-0,102662
2,381752	-27,269495	0,630	-0,102788
2,385753	-27,322374	0,730	-0,102811
2,389717	-27,482134	0,831	-0,102880
2,393740	-27,940038	0,931	-0,103079
2,397772	-27,893910	1,032	-0,103059
2,401757	-27,916412	1,132	-0,103069
2,405752	-28,442945	1,233	-0,103297
2,409797	-26,727211	1,333	-0,102553
2,413836	-25,401876	1,433	-0,101978
2,417742	-23,374496	1,534	-0,101098
2,421741	-21,918653	1,634	-0,100466
2,425768	-19,830519	1,734	-0,099560
2,429746	-17,856018	1,834	-0,098703
2,433746	-16,019900	1,935	-0,097906
2,437734	-13,710127	2,035	-0,096903
2,441740	-11,157339	2,135	-0,095795
2,445721	-8,398663	2,235	-0,094598
2,449774	-5,746868	2,335	-0,093447
2,453722	-2,919562	2,435	-0,092220
2,457789	-0,327396	2,535	-0,091095
2,461748	2,217517	2,635	-0,089991
2,465741	4,877187	2,735	-0,088836
2,469744	7,605487	2,835	-0,087652
2,473786	9,854506	2,935	-0,086676
2,477723	11,904387	3,036	-0,085787
2,481763	14,418923	3,136	-0,084695
2,485750	16,690443	3,236	-0,083709
2,489760	19,006966	3,336	-0,082704
2,493767	21,583381	3,436	-0,081586
2,497795	23,610761	3,537	-0,080706
2,501770	25,927284	3,638	-0,079701
2,505783	28,244933	3,739	-0,078695
2,509777	30,515328	3,839	-0,077709
2,513776	32,855478	3,939	-0,076694
2,517753	34,547586	4,040	-0,075959
2,521795	37,046371	4,140	-0,074875
2,525773	41,795300	4,240	-0,072814
2,529777	41,337396	4,340	-0,073013
2,533770	43,433405	4,440	-0,072103
2,537715	45,468660	4,540	-0,071220
2,541751	47,632173	4,640	-0,070281
2,545748	50,132083	4,740	-0,069196
2,549722	51,900697	4,840	-0,068428
2,553751	54,445610	4,941	-0,067324
2,557712	56,274977	5,041	-0,066530
2,557768	58,378861	5,141	-0,065617
2,557702	58,043590	5,241	-0,065762
2,557753	57,494555	5,342	-0,066000
2,557729	57,609312	5,442	-0,065951
2,557761	57,494555	5,544	-0,066000
2,557750	57,052401	5,644	-0,066192
2,557726	57,266165	5,744	-0,066100
2,557693	57,037775	5,844	-0,066199
2,557735	57,082778	5,945	-0,066179
2,557706	57,311168	6,045	-0,066080
2,557691	57,068152	6,145	-0,066186
2,557742	57,189660	6,245	-0,066133
2,557720	57,175034	6,346	-0,066139
2,557733	56,854389	6,447	-0,066278
2,557727	56,969146	6,547	-0,066229
2,557741	57,022024	6,647	-0,066206
2,557778	56,587747	6,747	-0,066394
2,557694	56,571996	6,847	-0,066401
2,557750	56,953395	6,948	-0,066235
2,557724	56,945520	7,048	-0,066239
2,557790	56,801510	7,149	-0,066301
2,557739	56,678877	7,249	-0,066354
2,557728	56,351481	7,349	-0,066497
2,557679	56,725005	7,449	-0,066334
2,557743	56,793635	7,549	-0,066305
2,557742	56,282852	7,649	-0,066526
2,557763	56,282852	7,749	-0,066526
2,557737	56,466239	7,850	-0,066447
2,557758	56,412235	7,950	-0,066470
2,557760	56,343606	8,050	-0,066500
2,557722	56,161344	8,150	-0,066579
2,557675	56,389734	8,250	-0,066480
2,557736	56,656376	8,350	-0,066364
2,557719	56,008335	8,450	-0,066646
2,557761	56,084839	8,551	-0,066612
2,557752	55,901453	8,652	-0,066692
2,557691	55,925079	8,752	-0,066682
2,557746	56,092715	8,853	-0,066609
2,557753	56,092715	8,953	-0,066609
2,557702	56,123092	9,053	-0,066596
2,557726	56,031961	9,153	-0,066635
2,557716	56,099465	9,253	-0,066606
2,557724	56,062338	9,353	-0,066622
2,557690	56,084839	9,453	-0,066612
2,557729	55,985833	9,553	-0,066655
2,557680	55,909328	9,653	-0,066688
2,557722	55,703440	9,753	-0,066778
2,557791	55,925079	9,853	-0,066682
2,557671	55,634811	9,953	-0,066808
2,557719	55,695565	10,054	-0,066781
2,553751	55,787820	10,154	-0,066741
2,549749	52,914387	10,255	-0,067988
2,545700	49,934071	10,356	-0,069282
2,541729	47,137142	10,456	-0,070496
2,537714	44,652983	10,556	-0,071574
2,533729	41,627664	10,656	-0,072887
2,529697	38,647348	10,757	-0,074180
2,525745	35,727787	10,858	-0,075447
2,521706	32,809350	10,958	-0,076714
2,517696	30,210433	11,058	-0,077842
2,513710	27,291997	11,159	-0,079108
2,509762	24,631201	11,259	-0,080263
2,505729	21,765643	11,360	-0,081507
2,501707	18,542312	11,460	-0,082906
2,497733	14,624811	11,560	-0,084606
2,493685	11,470109	11,660	-0,085975
2,489732	9,953512	11,760	-0,086633
2,485726	7,163333	11,860	-0,087844
2,481758	4,808558	11,960	-0,088866
2,477764	1,714610	12,060	-0,090209
2,473732	-0,983313	12,160	-0,091380
2,469752	-3,955753	12,260	-0,092670
2,465683	-6,783059	12,361	-0,093897
2,461740	-9,480982	12,461	-0,095068
2,457730	-12,163153	12,561	-0,096232
2,453745	-15,158095	12,661	-0,097532
2,449723	-17,833516	12,761	-0,098693
2,445713	-21,339241	12,862	-0,100214
2,441735	-22,124541	12,962	-0,100555
2,437743	-22,437311	13,062	-0,100691
2,433753	-22,863713	13,163	-0,100876
2,429745	-22,879464	13,263	-0,100883
2,425727	-24,029288	13,363	-0,101382
2,421785	-24,151921	13,464	-0,101435
2,417720	-25,248866	13,564	-0,101911
2,413747	-25,089106	13,664	-0,101842
2,409744	-26,292933	13,764	-0,102364
2,405711	-27,239118	13,864	-0,102775
2,401743	-27,962540	13,964	-0,103089
2,397734	-29,006606	14,064	-0,103542
2,393758	-28,960478	14,165	-0,103522
2,389731	-28,915476	14,265	-0,103502
2,385735	-28,945853	14,365	-0,103516
2,381766	-28,564453	14,465	-0,103350
2,377720	-28,465447	14,565	-0,103307
2,373700	-28,106549	14,666	-0,103151
2,369683	-28,099798	14,766	-0,103148
2,365716	-27,855658	14,866	-0,103042
2,361683	-27,269495	14,967	-0,102788
2,357757	-26,964601	15,067	-0,102656

File: program test-6-3
Quasi static measurement routine
Tip parameters (shape,radius, material...)
06.07.2022

Piezo position[nm]	MEMS displ.[nm]	Time[ms]	Cap [pf]
eoh
2,357986	-27,222242	0,203	-0,102454
2,361961	-27,314498	0,304	-0,102494
2,365913	-27,177239	0,404	-0,102434
2,370008	-27,284121	0,505	-0,102480
2,373934	-26,948850	0,605	-0,102335
2,377928	-27,367377	0,705	-0,102517
2,381978	-27,649770	0,806	-0,102639
2,385959	-28,114424	0,906	-0,102841
2,390013	-28,464322	1,007	-0,102993
2,393995	-28,403568	1,107	-0,102966
2,397971	-29,174242	1,207	-0,103301
2,401974	-29,059485	1,307	-0,103251
2,405969	-29,578143	1,407	-0,103476
2,410001	-28,655584	1,507	-0,103076
2,413998	-26,910597	1,608	-0,102318
2,417985	-25,812527	1,709	-0,101842
2,421922	-23,282240	1,810	-0,100744
2,425990	-21,323490	1,911	-0,099894
2,429941	-19,669634	2,012	-0,099176
2,433999	-17,635504	2,112	-0,098293
2,437984	-15,363983	2,213	-0,097307
2,441942	-13,229722	2,313	-0,096381
2,445968	-10,280908	2,413	-0,095101
2,449963	-8,039765	2,514	-0,094128
2,453981	-4,610545	2,614	-0,092640
2,458019	-2,377277	2,714	-0,091671
2,461922	0,236265	2,815	-0,090537
2,465976	3,178328	2,915	-0,089260
2,469940	5,076325	3,015	-0,088436
2,473948	10,419292	3,115	-0,086117
2,477997	10,708435	3,215	-0,085992
2,481968	16,454178	3,315	-0,083498
2,485961	15,486616	3,415	-0,083918
2,489940	18,078782	3,515	-0,082793
2,494014	21,126602	3,615	-0,081470
2,497960	22,734330	3,715	-0,080772
2,501917	28,313562	3,815	-0,078351
2,506003	27,421380	3,915	-0,078738
2,510022	30,211559	4,015	-0,077527
2,513993	35,355388	4,115	-0,075295
2,517963	34,868232	4,215	-0,075506
2,521955	38,715978	4,316	-0,073836
2,525952	42,382587	4,416	-0,072245
2,529939	41,856054	4,517	-0,072474
2,533975	44,424593	4,617	-0,071359
2,537988	47,130391	4,717	-0,070185
2,541944	48,929381	4,817	-0,069404
2,545962	51,367413	4,917	-0,068346
2,550032	53,669310	5,017	-0,067347
2,554017	55,376044	5,117	-0,066606
2,557977	58,447491	5,217	-0,065273
2,557909	60,216104	5,318	-0,064505
2,557915	59,721072	5,419	-0,064720
2,558008	60,216104	5,519	-0,064505
2,557964	59,149536	5,620	-0,064968
2,557954	59,476932	5,720	-0,064826
2,557986	59,697446	5,820	-0,064730
2,557957	58,699507	5,920	-0,065164
2,557953	59,400427	6,020	-0,064859
2,558003	58,669130	6,120	-0,065177
2,557964	59,026903	6,220	-0,065021
2,557955	58,966149	6,321	-0,065048
2,557955	58,364235	6,422	-0,065309
2,557917	59,111283	6,523	-0,064985
2,557932	58,843516	6,623	-0,065101
2,557917	58,516120	6,723	-0,065243
2,557890	58,988650	6,823	-0,065038
2,557951	58,394612	6,924	-0,065296
2,557984	58,196600	7,024	-0,065382
2,557968	58,477868	7,124	-0,065260
2,557912	57,937833	7,226	-0,065494
2,557945	58,562248	7,328	-0,065223
2,557967	58,386737	7,428	-0,065299
2,558013	57,724069	7,528	-0,065587
2,557929	58,379986	7,628	-0,065302
2,557994	57,776948	7,728	-0,065564
2,557972	57,701568	7,828	-0,065597
2,557954	58,089718	7,928	-0,065428
2,557952	57,677941	8,029	-0,065607
2,557930	58,097593	8,129	-0,065425
2,557977	57,526057	8,229	-0,065673
2,558010	57,571060	8,330	-0,065653
2,557907	58,105469	8,430	-0,065421
2,558022	57,716194	8,530	-0,065590
2,558000	57,708318	8,631	-0,065594
2,557942	58,043590	8,731	-0,065448
2,557934	57,602562	8,831	-0,065640
2,557972	57,830951	8,931	-0,065541
2,557998	57,670066	9,031	-0,065610
2,557935	57,746571	9,131	-0,065577
2,557980	57,868079	9,231	-0,065524
2,557959	57,510306	9,331	-0,065680
2,557962	57,556434	9,431	-0,065660
2,557973	57,227913	9,531	-0,065802
2,557940	57,227913	9,631	-0,065802
2,557970	57,609312	9,731	-0,065637
2,557946	57,540683	9,831	-0,065667
2,557968	57,449552	9,932	-0,065706
2,557955	57,762322	10,032	-0,065570
2,557971	57,373047	10,133	-0,065739
2,557948	57,495680	10,233	-0,065686
2,553989	56,229974	10,334	-0,066235
2,549931	53,798693	10,434	-0,067291
2,545941	51,809566	10,535	-0,068154
2,542012	48,899005	10,635	-0,069417
2,537976	45,712801	10,736	-0,070800
2,533951	42,687482	10,836	-0,072113
2,529945	40,286578	10,937	-0,073155
2,525976	37,489649	11,037	-0,074369
2,521981	34,700596	11,138	-0,075579
2,517954	30,531079	11,238	-0,077389
2,513986	28,778217	11,338	-0,078149
2,509995	25,783275	11,439	-0,079449
2,506012	23,099978	11,540	-0,080614
2,502001	20,456059	11,640	-0,081761
2,497937	17,582625	11,740	-0,083008
2,493961	14,496553	11,840	-0,084348
2,489961	11,744627	11,941	-0,085542
2,485941	8,848691	12,042	-0,086799
2,482015	5,831248	12,143	-0,088108
2,478008	3,010693	12,244	-0,089333
2,473972	0,595163	12,344	-0,090381
2,470000	-2,667546	12,444	-0,091797
2,465967	-5,288963	12,545	-0,092935
2,461948	-7,932883	12,645	-0,094082
2,457940	-10,935700	12,745	-0,095385
2,453910	-13,550367	12,845	-0,096520
2,449932	-16,773699	12,945	-0,097919
2,445880	-19,091347	13,046	-0,098925
2,442001	-21,674512	13,146	-0,100046
2,438011	-23,502754	13,246	-0,100839
2,433917	-23,443125	13,346	-0,100813
2,429978	-23,960658	13,446	-0,101038
2,425974	-24,852841	13,546	-0,101425
2,421922	-25,545885	13,646	-0,101726
2,417930	-26,483070	13,746	-0,102133
2,413956	-27,078233	13,846	-0,102391
2,409908	-27,847782	13,946	-0,102725
2,405937	-28,617332	14,046	-0,103059
2,401908	-29,386881	14,146	-0,103393
2,397951	-30,430948	14,246	-0,103846
2,393962	-30,339817	14,346	-0,103807
2,389959	-30,248686	14,446	-0,103767
2,385926	-30,256561	14,546	-0,103771
2,381984	-29,653523	14,646	-0,103509
2,377913	-29,348628	14,746	-0,103376
2,373960	-29,508389	14,847	-0,103446
2,369918	-28,998731	14,947	-0,103225
2,366028	-28,526201	15,047	-0,103020
2,361951	-28,030044	15,148	-0,102804
2,357970	-28,084047	15,248	-0,102828

File: program test-6-4
Quasi static measurement routine
Tip parameters (shape,radius, material...)
06.07.2022

Piezo position[nm]	MEMS displ.[nm]	Time[ms]	Cap [pf]
eoh
2,362025	-27,703773	0,220	-0,102669
2,365988	-28,114424	0,320	-0,102847
2,370042	-27,841032	0,420	-0,102729
2,374042	-27,932163	0,521	-0,102768
2,378053	-27,916412	0,621	-0,102761
2,381969	-28,282060	0,721	-0,102920
2,385983	-28,275310	0,821	-0,102917
2,389975	-28,724213	0,921	-0,103112
2,393998	-29,006606	1,022	-0,103234
2,397970	-29,242872	1,122	-0,103337
2,401971	-29,669274	1,222	-0,103522
2,406037	-30,187932	1,322	-0,103747
2,410001	-27,641894	1,423	-0,102642
2,413976	-27,544013	1,523	-0,102600
2,418020	-26,193926	1,623	-0,102014
2,421992	-24,236301	1,723	-0,101164
2,425993	-21,904027	1,823	-0,100152
2,430011	-20,165791	1,924	-0,099397
2,433979	-17,689507	2,024	-0,098323
2,438030	-16,043527	2,124	-0,097608
2,441979	-11,187716	2,224	-0,095501
2,445975	-10,777065	2,324	-0,095323
2,450003	-6,478165	2,424	-0,093457
2,453985	-4,694925	2,524	-0,092683
2,458009	-1,867620	2,624	-0,091456
2,462024	0,076505	2,725	-0,090612
2,466020	2,241143	2,825	-0,089673
2,470059	4,687050	2,925	-0,088611
2,474007	7,506480	3,025	-0,087388
2,478080	9,937761	3,125	-0,086333
2,482015	12,056272	3,225	-0,085413
2,486030	14,723817	3,325	-0,084255
2,489998	17,215852	3,426	-0,083174
2,493949	19,372615	3,526	-0,082238
2,498030	23,800898	3,626	-0,080316
2,502060	24,768460	3,727	-0,079896
2,506018	26,819466	3,827	-0,079006
2,510022	29,501638	3,927	-0,077842
2,514023	31,361382	4,028	-0,077035
2,518033	33,899545	4,129	-0,075933
2,522073	36,551339	4,229	-0,074782
2,525985	38,883614	4,329	-0,073770
2,530001	40,468840	4,429	-0,073082
2,534026	42,678481	4,530	-0,072123
2,538073	45,285273	4,630	-0,070992
2,542046	47,845937	4,731	-0,069880
2,545997	50,101707	4,831	-0,068901
2,549986	52,548738	4,931	-0,067839
2,554017	55,467175	5,031	-0,066573
2,558027	57,936708	5,131	-0,065501
2,561969	60,406241	5,231	-0,064429
2,562005	62,639509	5,331	-0,063460
2,561987	62,189480	5,432	-0,063655
2,561978	62,235608	5,532	-0,063635
2,561999	62,159103	5,632	-0,063668
2,562045	62,074723	5,733	-0,063705
2,561997	62,013969	5,834	-0,063731
2,561967	61,900337	5,935	-0,063781
2,561973	61,785579	6,035	-0,063831
2,562020	61,953215	6,135	-0,063758
2,562036	61,808081	6,236	-0,063821
2,561991	61,563940	6,337	-0,063927
2,561939	61,670822	6,438	-0,063880
2,562034	61,549314	6,538	-0,063933
2,561994	61,625819	6,638	-0,063900
2,561959	61,975716	6,739	-0,063748
2,562025	61,266921	6,840	-0,064056
2,561993	61,244420	6,940	-0,064065
2,561970	61,526813	7,040	-0,063943
2,561996	61,206167	7,140	-0,064082
2,561964	61,464934	7,240	-0,063970
2,562014	61,450308	7,340	-0,063976
2,561997	61,518937	7,440	-0,063946
2,562015	61,480685	7,541	-0,063963
2,561964	61,632569	7,641	-0,063897
2,561981	61,511062	7,741	-0,063950
2,561965	61,571816	7,841	-0,063923
2,561960	61,404180	7,943	-0,063996
2,561994	61,244420	8,043	-0,064065
2,561970	61,107161	8,143	-0,064125
2,561994	61,396304	8,243	-0,064000
2,561974	61,412055	8,343	-0,063993
2,561965	61,228669	8,444	-0,064072
2,561951	61,016030	8,544	-0,064165
2,561980	61,076784	8,644	-0,064138
2,562004	61,121787	8,744	-0,064119
2,562004	61,115036	8,844	-0,064122
2,562021	61,373803	8,945	-0,064009
2,561962	61,099285	9,045	-0,064128
2,561958	61,282672	9,146	-0,064049
2,561993	60,969902	9,246	-0,064185
2,561987	60,818017	9,346	-0,064250
2,562030	61,076784	9,447	-0,064138
2,561983	60,939525	9,548	-0,064198
2,561947	61,030656	9,649	-0,064158
2,562034	60,923774	9,749	-0,064205
2,561982	60,870896	9,849	-0,064228
2,561927	60,909148	9,949	-0,064211
2,562047	61,046407	10,049	-0,064151
2,561947	60,923774	10,149	-0,064205
2,562004	60,901273	10,249	-0,064214
2,558010	60,695385	10,349	-0,064304
2,554051	58,005337	10,449	-0,065471
2,550007	55,596558	10,549	-0,066517
2,545991	52,259595	10,649	-0,067965
2,542003	49,202774	10,749	-0,069292
2,537951	46,688238	10,850	-0,070383
2,533931	43,883434	10,950	-0,071600
2,529990	40,986373	11,051	-0,072857
2,526023	38,182694	11,152	-0,074074
2,521991	35,224879	11,253	-0,075358
2,517982	32,336820	11,353	-0,076611
2,514018	29,562392	11,453	-0,077815
2,509993	26,506696	11,554	-0,079142
2,505973	23,671515	11,654	-0,080372
2,501967	20,935340	11,755	-0,081560
2,497992	18,001152	11,855	-0,082833
2,493971	15,295354	11,955	-0,084007
2,489960	12,231783	12,055	-0,085337
2,486004	9,594614	12,155	-0,086481
2,481999	6,729056	12,255	-0,087725
2,477997	3,955753	12,355	-0,088929
2,473950	1,203827	12,455	-0,090123
2,470029	-1,928373	12,555	-0,091482
2,465959	-4,580168	12,656	-0,092633
2,461929	-7,674116	12,756	-0,093976
2,457989	-10,670183	12,857	-0,095276
2,453949	-12,841572	12,957	-0,096219
2,449972	-16,027776	13,057	-0,097602
2,445935	-18,770701	13,157	-0,098792
2,442016	-21,339241	13,257	-0,099907
2,437954	-23,229362	13,357	-0,100727
2,433979	-24,129419	13,457	-0,101118
2,429964	-23,687266	13,557	-0,100926
2,425989	-24,396061	13,657	-0,101233
2,421989	-25,416502	13,757	-0,101676
2,417998	-26,346936	13,858	-0,102080
2,414005	-27,322374	13,958	-0,102503
2,409975	-27,863533	14,058	-0,102738
2,405996	-29,029108	14,158	-0,103244
2,401982	-30,005670	14,258	-0,103668
2,398000	-30,553580	14,359	-0,103906
2,394028	-30,050673	14,459	-0,103688
2,389974	-30,226184	14,559	-0,103764
2,385937	-30,271187	14,660	-0,103783
2,381999	-29,616395	14,760	-0,103499
2,378034	-29,349753	14,860	-0,103383
2,374002	-29,357629	14,960	-0,103387
2,369948	-29,174242	15,060	-0,103307
2,365963	-28,572329	15,160	-0,103046
2,362027	-28,275310	15,260	-0,102917

File: program test-7
Quasi static measurement routine
Tip parameters (shape,radius, material...)
06.07.2022

Piezo position[nm]	MEMS displ.[nm]	Time[ms]	Cap [pf]
eoh
2,361872	-31,819286	0,208	-0,104147
2,369856	-31,536893	0,609	-0,104025
2,377852	-31,445763	1,009	-0,103985
2,385826	-32,177059	1,410	-0,104303
2,393880	-32,756471	1,811	-0,104554
2,401821	-32,146682	2,212	-0,104290
2,409845	-29,935916	2,613	-0,103330
2,417835	-26,453818	3,014	-0,101819
2,425905	-22,581320	3,415	-0,100138
2,433853	-18,664945	3,815	-0,098438
2,441830	-13,360230	4,216	-0,096136
2,449895	-8,010513	4,617	-0,093814
2,457907	-2,796929	5,017	-0,091552
2,465865	2,637169	5,418	-0,089193
2,473865	7,887880	5,818	-0,086915
2,481895	12,681812	6,218	-0,084834
2,489865	17,574750	6,618	-0,082710
2,497866	23,045975	7,019	-0,080336
2,505853	30,271187	7,419	-0,077200
2,513876	32,322194	7,819	-0,076310
2,521892	36,810106	8,220	-0,074362
2,529924	41,749172	8,621	-0,072219
2,537928	48,989010	9,021	-0,069077
2,545929	52,144837	9,422	-0,067707
2,553885	59,156286	9,822	-0,064664
2,561887	64,003096	10,223	-0,062561
2,561821	64,071726	10,623	-0,062531
2,561847	63,591320	11,023	-0,062739
2,561869	63,454061	11,424	-0,062799
2,561842	63,110914	11,825	-0,062948
2,561849	63,110914	12,225	-0,062948
2,561808	63,187419	12,626	-0,062915
2,561829	62,860023	13,026	-0,063057
2,561847	63,134541	13,427	-0,062938
2,561854	62,860023	13,827	-0,063057
2,561857	62,920777	14,228	-0,063030
2,561869	62,738515	14,628	-0,063109
2,561857	62,997282	15,029	-0,062997
2,561831	62,615882	15,429	-0,063163
2,553899	59,948337	15,650	-0,064320
2,545897	54,118214	16,052	-0,066851
2,537858	48,722368	16,453	-0,069192
2,529845	42,541223	16,853	-0,071875
2,521827	36,932739	17,254	-0,074309
2,513832	31,201622	17,654	-0,076796
2,505857	25,577387	18,054	-0,079237
2,497831	19,739388	18,455	-0,081771
2,489788	13,992521	18,857	-0,084265
2,481831	7,567234	19,257	-0,087054
2,473815	3,025319	19,658	-0,089025
2,465848	-2,492034	20,058	-0,091419
2,457874	-8,863317	20,458	-0,094185
2,449819	-14,107278	20,858	-0,096460
2,441842	-21,126602	21,259	-0,099507
2,433840	-25,005850	21,659	-0,101190
2,425863	-26,781214	22,059	-0,101961
2,417880	-28,495824	22,459	-0,102705
2,409865	-30,880976	22,859	-0,103740
2,401846	-31,635900	23,260	-0,104068
2,393846	-33,632903	23,661	-0,104935
2,385905	-33,449516	24,061	-0,104855
2,377815	-33,274005	24,462	-0,104779
2,369836	-32,245689	24,864	-0,104333
2,361858	-32,459452	25,265	-0,104425
2,361878	-31,758533	25,665	-0,104121
2,361860	-31,643775	26,065	-0,104071
2,361869	-31,581896	26,465	-0,104044
2,361858	-31,484015	26,866	-0,104002
2,361863	-31,506516	27,266	-0,104012
2,361905	-31,787784	27,667	-0,104134
2,361824	-31,773158	28,068	-0,104127
2,361901	-31,567270	28,469	-0,104038
2,361857	-31,651651	28,869	-0,104075
2,361873	-31,674152	29,269	-0,104084
2,361885	-31,581896	29,669	-0,104044
2,361877	-31,613398	30,069	-0,104058
2,361860	-31,581896	30,471	-0,104044
2,369873	-31,720280	30,693	-0,104104
2,377872	-31,498641	31,093	-0,104008
2,385863	-32,245689	31,493	-0,104333
2,393890	-32,024050	31,894	-0,104236
2,401847	-32,130931	32,294	-0,104283
2,409840	-29,989919	32,694	-0,103354
2,417860	-26,964601	33,095	-0,102041
2,425896	-22,550943	33,496	-0,100125
2,433857	-18,923711	33,897	-0,098551
2,441889	-13,650499	34,297	-0,096262
2,449899	-8,543797	34,697	-0,094046
2,457886	-3,551852	35,097	-0,091879
2,465918	2,453782	35,498	-0,089273
2,473825	6,623299	35,898	-0,087463
2,481863	11,484735	36,299	-0,085354
2,489855	15,935520	36,700	-0,083422
2,497872	20,721576	37,100	-0,081345
2,505877	25,347872	37,501	-0,079337
2,513860	30,180057	37,903	-0,077240
2,521877	36,246445	38,304	-0,074607
2,529852	40,103192	38,705	-0,072933
2,537862	46,519477	39,106	-0,070148
2,545836	50,848754	39,506	-0,068270
2,553835	56,129842	39,908	-0,065978
2,561945	61,160039	40,308	-0,063794
2,561850	63,538441	40,708	-0,062762
2,561827	63,599195	41,108	-0,062736
2,561841	63,385432	41,508	-0,062829
2,561849	63,659949	41,910	-0,062709
2,561848	63,514815	42,311	-0,062772
2,561854	63,774707	42,712	-0,062660
2,561870	63,203170	43,112	-0,062908
2,561845	63,599195	43,514	-0,062736
2,561878	63,538441	43,914	-0,062762
2,561827	63,134541	44,315	-0,062938
2,561843	63,271799	44,715	-0,062878
2,561885	63,423684	45,115	-0,062812
2,561898	63,104164	45,515	-0,062951
2,553835	60,390490	45,737	-0,064128
2,545862	53,623182	46,138	-0,067065
2,537846	49,126269	46,538	-0,069017
2,529810	43,502034	46,938	-0,071458
2,521849	37,579655	47,339	-0,074028
2,513864	32,443701	47,739	-0,076257
2,505885	26,102796	48,141	-0,079009
2,497881	19,784391	48,541	-0,081751
2,489850	14,929706	48,941	-0,083858
2,481843	8,885819	49,342	-0,086481
2,473883	2,195015	49,743	-0,089385
2,465867	-2,096009	50,143	-0,091248
2,457886	-8,124145	50,544	-0,093864
2,449823	-13,360230	50,944	-0,096136
2,441900	-19,586379	51,344	-0,098838
2,433868	-24,739208	51,744	-0,101075
2,425838	-27,306623	52,144	-0,102189
2,417844	-29,296875	52,545	-0,103053
2,409835	-30,408446	52,945	-0,103535
2,401806	-31,993673	53,346	-0,104223
2,393861	-33,297631	53,746	-0,104789
2,385883	-33,580024	54,146	-0,104912
2,377834	-33,358385	54,547	-0,104815
2,369813	-32,421200	54,948	-0,104409
2,361851	-32,215312	55,348	-0,104319
2,361806	-31,734906	55,748	-0,104111
2,361910	-31,781034	56,148	-0,104131
2,361842	-31,781034	56,548	-0,104131
2,361891	-31,887916	56,948	-0,104177
2,361838	-31,795660	57,348	-0,104137
2,361867	-31,720280	57,748	-0,104104
2,361871	-31,795660	58,149	-0,104137
2,361879	-31,567270	58,549	-0,104038
2,361878	-31,552644	58,949	-0,104032
2,361866	-31,581896	59,350	-0,104044
2,361892	-31,712405	59,751	-0,104101
2,361884	-31,452513	60,153	-0,103988
2,361878	-31,635900	60,554	-0,104068
2,369893	-31,468264	60,775	-0,103995
2,377891	-31,559395	61,175	-0,104035
2,385901	-32,047676	61,575	-0,104247
2,393882	-32,100554	61,975	-0,104270
2,401871	-32,162433	62,376	-0,104296
2,409937	-30,264437	62,776	-0,103473
2,417861	-26,682208	63,177	-0,101918
2,425902	-22,917717	63,577	-0,100284
2,433883	-18,939462	63,977	-0,098558
2,441849	-14,022897	64,377	-0,096424
2,449863	-8,604551	64,778	-0,094072
2,457867	-3,376341	65,180	-0,091803
2,465867	1,387214	65,581	-0,089736
2,473869	6,104641	65,981	-0,087688
2,481875	10,997579	66,382	-0,085565
2,489889	15,592373	66,783	-0,083571
2,497872	20,280548	67,184	-0,081536
2,505872	27,672271	67,587	-0,078328
2,513843	30,630085	67,987	-0,077044
2,521838	35,156250	68,388	-0,075080
2,529847	40,719731	68,788	-0,072666
2,537862	45,749928	69,189	-0,070482
2,545874	51,961451	69,589	-0,067787
2,553871	56,472989	69,989	-0,065829
2,561870	61,922838	70,390	-0,063463
2,561850	64,041349	70,790	-0,062544
2,561849	64,315866	71,191	-0,062425
2,561818	63,881588	71,591	-0,062613
2,561877	63,934467	71,991	-0,062590
2,561847	64,247237	72,393	-0,062455
2,561871	63,758956	72,793	-0,062667
2,561887	63,683576	73,193	-0,062699
2,561856	63,728579	73,594	-0,062680
2,561812	63,653199	73,994	-0,062712
2,561769	63,492314	74,394	-0,062782
2,561810	63,843336	74,794	-0,062630
2,561865	63,851211	75,194	-0,062626
2,561854	63,751080	75,595	-0,062670
2,553845	60,939525	75,817	-0,063890
2,545838	54,903514	76,219	-0,066510
2,537802	49,469416	76,619	-0,068868
2,529816	43,631417	77,020	-0,071402
2,521798	37,892425	77,421	-0,073893
2,513804	31,628024	77,822	-0,076611
2,505818	26,453818	78,224	-0,078857
2,497817	20,836334	78,624	-0,081295
2,489828	15,585622	79,026	-0,083574
2,481819	9,800502	79,427	-0,086084
2,473826	3,940002	79,828	-0,088628
2,465805	-2,255769	80,228	-0,091317
2,457824	-7,461478	80,629	-0,093576
2,449820	-12,994582	81,030	-0,095978
2,441784	-18,580564	81,430	-0,098402
2,433802	-24,174422	81,830	-0,100830
2,425846	-28,610581	82,231	-0,102755
2,417858	-28,984105	82,632	-0,102917
2,409790	-31,529018	83,032	-0,104021
2,401812	-31,651651	83,432	-0,104075
2,393820	-33,594650	83,832	-0,104918
2,385812	-33,556398	84,233	-0,104901
2,377758	-33,281880	84,634	-0,104782
2,369872	-32,427950	85,034	-0,104412
2,361800	-32,199561	85,434	-0,104313