Folder: Nanoindentation_Analysis/Nanoindentation Datenauswertung/data/labview program test (part 3)

File: program test-8
Quasi static measurement routine
Tip parameters (shape,radius, material...)
06.07.2022

Piezo position[nm]	MEMS displ.[nm]	Time[ms]	Cap [pf]
eoh
2,261996	-23,542132	0,188	-0,100565
2,267065	-23,649014	0,439	-0,100611
2,272029	-23,740144	0,690	-0,100651
2,277042	-23,992160	0,942	-0,100760
2,282039	-24,190173	1,195	-0,100846
2,287047	-24,525445	1,447	-0,100992
2,292027	-24,365684	1,701	-0,100922
2,297087	-24,640202	1,952	-0,101042
2,302061	-24,898969	2,205	-0,101154
2,307056	-25,044103	2,455	-0,101217
2,312092	-25,356873	2,707	-0,101353
2,317033	-25,524509	2,959	-0,101425
2,322034	-26,118547	3,212	-0,101683
2,327020	-26,506696	3,462	-0,101852
2,332129	-26,873470	3,712	-0,102011
2,336995	-26,766588	3,963	-0,101964
2,342031	-27,116485	4,214	-0,102116
2,347043	-27,443881	4,465	-0,102258
2,352075	-27,322374	4,717	-0,102206
2,357064	-27,154738	4,969	-0,102133
2,362081	-27,657645	5,221	-0,102351
2,367104	-27,848907	5,473	-0,102434
2,372073	-28,222431	5,723	-0,102596
2,377057	-28,549827	5,973	-0,102738
2,382065	-28,435070	6,225	-0,102688
2,387038	-28,412568	6,476	-0,102679
2,392072	-28,130175	6,727	-0,102556
2,397046	-28,489073	6,977	-0,102712
2,402031	-31,887916	7,229	-0,104187
2,407051	-30,173306	7,481	-0,103443
2,412037	-27,833156	7,732	-0,102427
2,417064	-24,922595	7,984	-0,101164
2,422060	-22,521691	8,237	-0,100122
2,427003	-20,288423	8,488	-0,099153
2,432029	-17,772762	8,741	-0,098061
2,437066	-14,435799	8,992	-0,096613
2,442040	-11,120212	9,244	-0,095174
2,447069	-7,681992	9,496	-0,093682
2,452040	-4,291025	9,749	-0,092210
2,456996	-0,853930	9,999	-0,090718
2,462051	2,560664	10,249	-0,089236
2,467020	6,050637	10,501	-0,087722
2,472039	8,633803	10,752	-0,086601
2,477052	11,591617	11,005	-0,085317
2,482014	14,586559	11,257	-0,084017
2,487045	17,749136	11,509	-0,082645
2,492081	20,622570	11,763	-0,081397
2,497047	23,305867	12,014	-0,080233
2,502043	26,589952	12,267	-0,078808
2,507074	29,600644	12,518	-0,077501
2,512044	32,367197	12,770	-0,076300
2,517031	35,682784	13,020	-0,074861
2,522058	39,043374	13,273	-0,073403
2,527038	41,672667	13,524	-0,072262
2,532049	44,964628	13,775	-0,070833
2,537021	48,104704	14,027	-0,069470
2,542064	51,610428	14,278	-0,067949
2,547059	54,445610	14,528	-0,066718
2,552037	58,126845	14,778	-0,065121
2,557069	61,167915	15,030	-0,063801
2,562008	64,193233	15,280	-0,062488
2,567060	66,899032	15,531	-0,061313
2,572051	70,679273	15,782	-0,059673
2,577035	74,260378	16,033	-0,058119
2,582024	77,363326	16,283	-0,056772
2,587011	80,449399	16,536	-0,055433
2,592028	83,535471	16,793	-0,054093
2,597081	86,729551	17,043	-0,052707
2,602073	89,137205	17,293	-0,051662
2,607056	92,468543	17,544	-0,050216
2,612066	94,868322	17,796	-0,049175
2,617030	97,368232	18,047	-0,048090
2,622095	100,035777	18,302	-0,046932
2,627038	102,527812	18,552	-0,045851
2,632045	105,691514	18,806	-0,044478
2,636996	108,564948	19,059	-0,043230
2,642037	110,903973	19,309	-0,042215
2,647071	113,922541	19,560	-0,040905
2,652044	116,695844	19,813	-0,039702
2,657098	119,462396	20,063	-0,038501
2,662086	122,275076	20,314	-0,037280
2,666993	124,446465	20,566	-0,036338
2,672065	127,228768	20,821	-0,035130
2,677003	130,048198	21,074	-0,033907
2,682055	132,669616	21,325	-0,032769
2,687041	135,391165	21,575	-0,031588
2,692035	139,187158	21,827	-0,029940
2,697034	141,077279	22,078	-0,029120
2,702041	143,630067	22,329	-0,028012
2,707056	146,533878	22,581	-0,026752
2,712041	149,940596	22,832	-0,025273
2,717020	152,806155	23,083	-0,024030
2,722057	155,518703	23,333	-0,022853
2,727026	158,604776	23,584	-0,021513
2,732044	161,950740	23,834	-0,020061
2,737019	164,634037	24,088	-0,018896
2,742050	167,255454	24,340	-0,017759
2,747024	170,304399	24,593	-0,016436
2,752045	173,367971	24,843	-0,015106
2,757064	175,425727	25,093	-0,014213
2,762075	177,734375	25,345	-0,013211
2,761982	177,467733	25,596	-0,013327
2,762066	176,758938	25,850	-0,013634
2,762025	176,774689	26,102	-0,013627
2,762050	176,362912	26,352	-0,013806
2,762023	176,241404	26,604	-0,013859
2,762040	176,217778	26,854	-0,013869
2,761970	176,203152	27,107	-0,013875
2,761972	175,928634	27,361	-0,013995
2,762023	175,852130	27,614	-0,014028
2,762019	175,654117	27,864	-0,014114
2,761992	175,562986	28,115	-0,014153
2,762039	175,684494	28,366	-0,014101
2,762007	175,463980	28,616	-0,014196
2,761991	175,310970	28,869	-0,014263
2,762080	175,516858	29,120	-0,014173
2,762039	175,349222	29,372	-0,014246
2,762049	175,060079	29,624	-0,014372
2,762011	175,288468	29,876	-0,014272
2,762064	175,173711	30,127	-0,014322
2,762034	175,013951	30,378	-0,014392
2,757013	171,920003	30,630	-0,015734
2,752034	168,398528	30,884	-0,017263
2,747053	165,189822	31,136	-0,018655
2,742000	160,853795	31,389	-0,020537
2,737032	157,835226	31,643	-0,021847
2,732005	154,215870	31,893	-0,023418
2,727012	150,831653	32,144	-0,024887
2,722046	147,135792	32,395	-0,026491
2,717056	142,974150	32,647	-0,028297
2,712046	140,215474	32,900	-0,029494
2,707054	136,404855	33,152	-0,031148
2,702066	132,647114	33,404	-0,032779
2,697044	129,446285	33,657	-0,034168
2,692040	125,536659	33,908	-0,035865
2,687022	121,871175	34,158	-0,037456
2,682057	118,692846	34,409	-0,038835
2,677041	114,577333	34,662	-0,040621
2,671986	111,299998	34,914	-0,042043
2,667082	107,749271	35,165	-0,043584
2,662015	104,235671	35,418	-0,045109
2,657021	100,714196	35,671	-0,046638
2,652040	97,056587	35,923	-0,048225
2,647044	93,595865	36,175	-0,049727
2,642007	89,922505	36,425	-0,051321
2,637048	85,822743	36,684	-0,053101
2,631999	82,614037	36,952	-0,054493
2,627101	78,948553	37,204	-0,056084
2,621992	76,212378	37,458	-0,057271
2,617012	72,157618	37,712	-0,059031
2,612053	68,468507	37,963	-0,060632
2,607066	65,146169	38,214	-0,062074
2,602043	61,563940	38,465	-0,063629
2,597038	58,080717	38,715	-0,065141
2,592045	54,239721	38,967	-0,066808
2,587066	50,840879	39,219	-0,068283
2,581984	47,442036	39,471	-0,069758
2,577060	43,714673	39,724	-0,071375
2,572046	40,475590	39,975	-0,072781
2,567085	36,520962	40,228	-0,074498
2,562036	33,205375	40,478	-0,075937
2,557048	29,417258	40,729	-0,077581
2,552023	26,109546	40,988	-0,079016
2,546990	22,680327	41,251	-0,080504
2,542006	19,402992	41,503	-0,081927
2,536972	15,478741	41,755	-0,083630
2,532029	11,903262	42,009	-0,085182
2,527072	7,979011	42,260	-0,086885
2,522026	4,709551	42,512	-0,088304
2,517001	1,652731	42,765	-0,089630
2,512050	-2,111760	43,017	-0,091264
2,507005	-5,587108	43,269	-0,092772
2,502026	-9,694745	43,523	-0,094555
2,497057	-12,705438	43,773	-0,095862
2,492045	-16,782699	44,023	-0,097631
2,487044	-18,002277	44,273	-0,098161
2,482036	-18,085532	44,523	-0,098197
2,477104	-19,175727	44,774	-0,098670
2,472007	-20,173666	45,024	-0,099103
2,467062	-21,164855	45,275	-0,099533
2,462064	-22,300052	45,525	-0,100026
2,457103	-23,847026	45,777	-0,100697
2,452028	-24,518694	46,028	-0,100989
2,446969	-26,126422	46,278	-0,101687
2,442061	-27,025355	46,528	-0,102077
2,437018	-27,665521	46,780	-0,102354
2,432043	-27,101860	47,031	-0,102110
2,427031	-28,237057	47,283	-0,102603
2,422086	-28,725338	47,537	-0,102814
2,417050	-30,249811	47,788	-0,103476
2,412094	-30,950731	48,041	-0,103780
2,407093	-31,895791	48,293	-0,104190
2,402051	-32,550583	48,544	-0,104475
2,397055	-33,671155	48,797	-0,104961
2,392000	-33,778037	49,049	-0,105007
2,387045	-33,533896	49,299	-0,104901
2,382047	-33,198625	49,550	-0,104756
2,377058	-33,153622	49,801	-0,104736
2,372080	-32,330069	50,052	-0,104379
2,367029	-31,956545	50,304	-0,104217
2,362024	-31,865414	50,564	-0,104177
2,356953	-31,461514	50,817	-0,104002
2,352090	-31,041862	51,067	-0,103820
2,347056	-31,011485	51,319	-0,103807
2,341989	-30,538954	51,570	-0,103602
2,337031	-30,347692	51,822	-0,103519
2,332008	-30,013546	52,072	-0,103374
2,327056	-29,670399	52,323	-0,103225
2,321982	-29,319376	52,573	-0,103072
2,317095	-26,003789	52,825	-0,101633
2,312017	-26,080294	53,075	-0,101667
2,307047	-25,424377	53,327	-0,101382
2,302042	-25,211739	53,582	-0,101290
2,297081	-25,005850	53,837	-0,101200
2,292039	-24,906844	54,089	-0,101157
2,287062	-24,784211	54,343	-0,101104
2,282051	-24,212675	54,594	-0,100856
2,276992	-24,182298	54,846	-0,100843
2,272015	-24,106918	55,097	-0,100810
2,267039	-23,703017	55,349	-0,100635
2,262023	-23,557883	55,602	-0,100572

File: program test-10
Quasi static measurement routine
Tip parameters (shape,radius, material...)
06.07.2022

Piezo position[nm]	MEMS displ.[nm]	Time[ms]	Cap [pf]
eoh
2,255989	-23,038099	0,189	-0,100737
2,281016	-23,092103	0,689	-0,100760
2,306030	-24,037163	1,190	-0,101170
2,331051	-25,195988	1,691	-0,101673
2,356063	-26,765463	2,192	-0,102354
2,381063	-27,619393	2,692	-0,102725
2,406070	-32,229938	3,192	-0,104726
2,431059	-28,990855	3,692	-0,103320
2,456046	-16,476680	4,192	-0,097889
2,481031	-0,113632	4,694	-0,090788
2,506100	15,684629	5,194	-0,083931
2,531070	29,867287	5,694	-0,077776
2,556146	44,546101	6,194	-0,071405
2,581083	58,851391	6,695	-0,065197
2,606152	73,179183	7,196	-0,058979
2,631137	96,676312	7,697	-0,048781
2,656095	102,185790	8,197	-0,046390
2,681168	117,939048	8,697	-0,039553
2,706068	133,204025	9,197	-0,032928
2,731057	148,973034	9,698	-0,026084
2,756079	165,320331	10,198	-0,018989
2,755968	181,766633	10,699	-0,011852
2,755947	181,454988	11,199	-0,011987
2,755970	181,119717	11,699	-0,012132
2,755970	180,990333	12,201	-0,012188
2,755998	180,845199	12,701	-0,012251
2,756016	180,570682	13,202	-0,012371
2,755973	180,958831	13,703	-0,012202
2,756022	180,516678	14,204	-0,012394
2,755973	180,562806	14,704	-0,012374
2,755995	180,227535	15,204	-0,012520
2,730963	180,463800	15,705	-0,012417
2,705925	162,874424	16,205	-0,020051
2,680963	144,972278	16,705	-0,027820
2,655936	127,268145	17,206	-0,035504
2,630950	109,380625	17,706	-0,043267
2,605954	91,599987	18,206	-0,050984
2,580958	73,842976	18,706	-0,058690
2,555904	56,276102	19,206	-0,066314
2,530902	38,342454	19,706	-0,074098
2,505966	20,470685	20,206	-0,081854
2,480921	2,782303	20,707	-0,089531
2,455895	-15,051213	21,208	-0,097271
2,430944	-24,059665	21,708	-0,101180
2,405940	-25,287118	22,209	-0,101713
2,380938	-30,309440	22,711	-0,103893
2,355918	-32,580960	23,211	-0,104878
2,330873	-31,460388	23,711	-0,104392
2,305953	-29,013357	24,212	-0,103330
2,280928	-25,820403	24,712	-0,101944
2,255971	-24,258803	25,213	-0,101267

File: program test-11
Quasi static measurement routine
Tip parameters (shape,radius, material...)
06.07.2022

Piezo position[nm]	MEMS displ.[nm]	Time[ms]	Cap [pf]
eoh
2,253927	0,092256	0,181	-0,100826
2,278998	0,167636	0,682	-0,100793
2,303987	-0,648041	1,183	-0,101147
2,329006	-1,920498	1,683	-0,101700
2,353996	-3,215456	2,183	-0,102262
2,378964	-3,825245	2,683	-0,102526
2,404013	-8,543797	3,184	-0,104574
2,429026	-6,135018	3,684	-0,103529
2,454026	6,096765	4,184	-0,098220
2,478945	22,003033	4,684	-0,091317
2,504080	37,756291	5,186	-0,084480
2,529019	52,183090	5,686	-0,078219
2,554022	66,625639	6,186	-0,071951
2,578995	80,739667	6,687	-0,065825
2,604017	94,671434	7,187	-0,059779
2,629029	107,482629	7,687	-0,054219
2,654040	121,079124	8,187	-0,048318
2,679040	136,450983	8,687	-0,041646
2,703992	151,144423	9,188	-0,035270
2,729034	165,480091	9,688	-0,029048
2,754024	181,027461	10,188	-0,022300
2,753964	196,689588	10,688	-0,015503
2,753948	196,156304	11,188	-0,015734
2,753945	195,966167	11,688	-0,015817
2,753898	195,340627	12,188	-0,016088
2,753946	195,470010	12,688	-0,016032
2,753914	195,180867	13,188	-0,016158
2,753984	194,981729	13,688	-0,016244
2,753951	195,294499	14,189	-0,016108
2,753920	194,914225	14,689	-0,016273
2,753947	195,326001	15,190	-0,016095
2,728877	194,997480	15,690	-0,016237
2,703898	172,674926	16,191	-0,025925
2,678886	158,042240	16,691	-0,032276
2,653895	141,770323	17,191	-0,039338
2,628847	123,791673	17,692	-0,047141
2,603885	104,358304	18,193	-0,055575
2,578847	88,110014	18,693	-0,062626
2,553816	70,733277	19,193	-0,070168
2,528908	53,174278	19,693	-0,077789
2,503830	35,240630	20,193	-0,085572
2,478840	17,597251	20,694	-0,093229
2,453823	6,875315	21,194	-0,097882
2,428870	1,913747	21,694	-0,100036
2,403881	-3,101824	22,194	-0,102212
2,378915	-7,338845	22,694	-0,104051
2,353901	-9,457355	23,194	-0,104971
2,328820	-8,047640	23,694	-0,104359
2,303837	-6,135018	24,195	-0,103529
2,278831	-2,667546	24,695	-0,102024
2,253880	-0,983313	25,195	-0,101293

File: program test-18
Quasi static measurement routine
Tip parameters (shape,radius, material...)
06.07.2022

Piezo position[nm]	MEMS displ.[nm]	Time[ms]	Cap [pf]
eoh
2,252057	0,091131	0,196	-0,100701
2,258027	-0,397150	0,348	-0,100913
2,264041	-0,160885	0,499	-0,100810
2,270020	-0,579412	0,649	-0,100992
2,276069	-0,838179	0,801	-0,101104
2,282079	-1,098070	0,951	-0,101217
2,287995	-1,144198	1,102	-0,101237
2,293995	-1,524473	1,253	-0,101402
2,300039	-1,608853	1,403	-0,101438
2,306030	-2,012754	1,557	-0,101614
2,312027	-2,584290	1,708	-0,101862
2,318061	-2,988191	1,876	-0,102037
2,324026	-3,232332	2,027	-0,102143
2,330007	-3,505724	2,178	-0,102262
2,335996	-3,772366	2,329	-0,102377
2,342098	-4,535165	2,480	-0,102708
2,348021	-6,600797	2,632	-0,103605
2,354019	-6,501791	2,782	-0,103562
2,360026	-6,607548	2,933	-0,103608
2,366056	-6,615423	3,083	-0,103611
2,372061	-7,584110	3,233	-0,104032
2,378040	-7,370347	3,383	-0,103939
2,384085	-7,263465	3,533	-0,103893
2,390020	-7,827126	3,684	-0,104137
2,396026	-9,664369	3,840	-0,104935
2,402047	-7,186960	3,991	-0,103859
2,408028	-4,032258	4,144	-0,102490
2,414006	-0,869681	4,294	-0,101118
2,420015	0,807802	4,445	-0,100390
2,426019	4,602670	4,596	-0,098743
2,432000	6,981072	4,751	-0,097710
2,438000	12,308288	4,902	-0,095398
2,444026	15,989523	5,055	-0,093801
2,450091	18,595190	5,206	-0,092670
2,456036	22,939093	5,357	-0,090785
2,462039	26,444817	5,507	-0,089263
2,467989	30,454574	5,660	-0,087523
2,473998	35,224879	5,810	-0,085453
2,480018	37,976806	5,960	-0,084258
2,486040	42,678481	6,111	-0,082218
2,492003	45,887187	6,272	-0,080825
2,497977	49,027263	6,423	-0,079462
2,504023	52,929012	6,573	-0,077769
2,510011	55,176906	6,743	-0,076793
2,516014	60,230730	6,894	-0,074600
2,522004	61,990342	7,046	-0,073836
2,528018	66,045102	7,199	-0,072077
2,534051	68,605766	7,350	-0,070965
2,540037	72,440011	7,513	-0,069301
2,546020	74,253627	7,663	-0,068514
2,552050	79,161191	7,814	-0,066384
2,558018	83,292456	7,964	-0,064591
2,564014	85,479596	8,115	-0,063642
2,570026	88,535291	8,265	-0,062316
2,576010	92,147897	8,419	-0,060748
2,582051	96,293788	8,570	-0,058949
2,588007	98,672190	8,722	-0,057917
2,594025	102,117160	8,873	-0,056421
2,600030	106,499316	9,024	-0,054520
2,605995	108,563823	9,187	-0,053624
2,612013	112,230433	9,338	-0,052032
2,618036	115,423387	9,488	-0,050646
2,624038	119,630031	9,639	-0,048821
2,630092	122,983871	9,792	-0,047365
2,636015	126,199327	9,954	-0,045970
2,642011	129,286524	10,105	-0,044630
2,648007	133,074642	10,256	-0,042986
2,653999	137,646934	10,406	-0,041001
2,660023	140,154720	10,557	-0,039913
2,665985	144,811393	10,708	-0,037892
2,671998	147,127916	10,858	-0,036887
2,678003	151,441442	11,008	-0,035015
2,683964	155,450074	11,158	-0,033275
2,690006	157,935358	11,310	-0,032196
2,696001	160,983178	11,460	-0,030874
2,702007	164,961433	11,611	-0,029147
2,707971	168,558288	11,762	-0,027586
2,714048	172,857188	11,913	-0,025720
2,719983	177,163963	12,063	-0,023851
2,726073	180,363668	12,214	-0,022462
2,732027	185,157600	12,367	-0,020382
2,738040	187,481999	12,517	-0,019373
2,744052	192,329934	12,667	-0,017269
2,750013	194,761215	12,818	-0,016214
2,751982	197,214997	12,972	-0,015149
2,752004	196,986607	13,124	-0,015248
2,751966	197,146367	13,274	-0,015179
2,752001	196,811096	13,428	-0,015324
2,752010	196,589457	13,578	-0,015420
2,751963	196,681713	13,736	-0,015380
2,752037	196,917978	13,886	-0,015278
2,751944	196,704214	14,038	-0,015371
2,752006	196,589457	14,192	-0,015420
2,752075	196,467949	14,342	-0,015473
2,752026	196,605208	14,492	-0,015414
2,752014	196,483700	14,642	-0,015466
2,752007	196,124802	14,792	-0,015622
2,751995	196,597332	14,943	-0,015417
2,752055	196,193431	15,094	-0,015592
2,751959	196,330690	15,245	-0,015533
2,752013	196,619834	15,396	-0,015407
2,752005	196,415071	15,548	-0,015496
2,752024	196,514077	15,698	-0,015453
2,752020	196,415071	15,859	-0,015496
2,751994	196,726716	16,009	-0,015361
2,752018	196,566955	16,159	-0,015430
2,752039	196,415071	16,311	-0,015496
2,752044	196,734591	16,462	-0,015357
2,752028	196,140553	16,614	-0,015615
2,752021	196,643460	16,765	-0,015397
2,752026	196,681713	16,918	-0,015380
2,752016	196,521952	17,069	-0,015450
2,752035	196,345316	17,220	-0,015526
2,751987	196,536578	17,371	-0,015443
2,751968	196,764968	17,522	-0,015344
2,751996	196,574831	17,672	-0,015427
2,752011	196,582706	17,823	-0,015423
2,749998	196,201307	17,974	-0,015589
2,743997	192,070042	18,126	-0,017382
2,738018	186,201667	18,276	-0,019929
2,731989	182,734195	18,426	-0,021434
2,726043	178,299161	18,577	-0,023358
2,720014	174,450290	18,728	-0,025029
2,714063	170,692549	18,879	-0,026660
2,707971	166,478030	19,030	-0,028489
2,702003	161,280197	19,182	-0,030745
2,695986	158,140121	19,333	-0,032107
2,689966	153,598205	19,485	-0,034079
2,684022	149,444439	19,636	-0,035881
2,678020	144,613380	19,786	-0,037978
2,672000	141,107656	19,937	-0,039500
2,666022	137,052896	20,089	-0,041259
2,660013	132,495230	20,248	-0,043237
2,654004	128,143451	20,399	-0,045126
2,647991	123,197635	20,550	-0,047272
2,642015	119,668284	20,747	-0,048804
2,636010	115,278253	20,899	-0,050709
2,630015	109,508884	21,050	-0,053213
2,624001	105,607134	21,200	-0,054907
2,618017	102,147537	21,362	-0,056408
2,612015	96,766318	21,514	-0,058744
2,606005	93,557613	21,665	-0,060136
2,599998	88,161767	21,816	-0,062478
2,594033	85,075695	21,967	-0,063817
2,587985	79,992620	22,118	-0,066023
2,582020	76,699534	22,280	-0,067453
2,575967	72,477139	22,430	-0,069285
2,570017	66,944034	22,581	-0,071687
2,564076	64,201109	22,731	-0,072877
2,558004	58,805264	22,882	-0,075219
2,552003	55,451424	23,034	-0,076674
2,546025	51,123272	23,184	-0,078553
2,540005	46,527353	23,334	-0,080547
2,534045	42,137322	23,487	-0,082453
2,528044	36,947365	23,637	-0,084705
2,522048	33,647528	23,788	-0,086137
2,516030	29,974168	23,938	-0,087731
2,510024	25,469380	24,088	-0,089687
2,504056	20,111787	24,238	-0,092012
2,498028	16,781574	24,389	-0,093457
2,492031	11,393604	24,541	-0,095795
2,486009	8,238902	24,693	-0,097165
2,480032	3,734114	24,843	-0,099120
2,474032	3,978255	24,998	-0,099014
2,467971	3,093948	25,162	-0,099397
2,462040	1,234204	25,322	-0,100205
2,455988	-0,815677	25,472	-0,101094
2,450062	-1,249955	25,623	-0,101283
2,443960	-3,186204	25,776	-0,102123
2,437975	-4,337153	25,927	-0,102623
2,432003	-6,447788	26,078	-0,103539
2,426019	-6,082139	26,253	-0,103380
2,420024	-6,303778	26,405	-0,103476
2,414020	-7,705618	26,559	-0,104084
2,408055	-9,084956	26,719	-0,104683
2,402022	-9,473106	26,871	-0,104852
2,395993	-10,982953	27,022	-0,105507
2,389988	-11,394729	27,188	-0,105686
2,384053	-11,195592	27,340	-0,105599
2,378009	-11,272096	27,516	-0,105632
2,372039	-9,999640	27,668	-0,105080
2,366035	-9,549611	27,819	-0,104885
2,360041	-9,145710	27,972	-0,104709
2,354034	-8,856567	28,122	-0,104584
2,348044	-8,765436	28,274	-0,104544
2,342077	-8,223151	28,425	-0,104309
2,336025	-7,491854	28,576	-0,103992
2,330002	-7,057577	28,726	-0,103803
2,324045	-6,439912	28,876	-0,103535
2,317977	-5,754743	29,027	-0,103238
2,312016	-6,173270	29,177	-0,103419
2,306033	-5,335091	29,328	-0,103056
2,300054	-3,513600	29,478	-0,102265
2,294047	-2,798054	29,628	-0,101955
2,288019	-2,454907	29,780	-0,101806
2,282019	-2,188265	29,949	-0,101690
2,276019	-2,096009	30,101	-0,101650
2,270020	-1,653856	30,252	-0,101458
2,264041	-1,082319	30,406	-0,101210
2,258038	-0,488281	30,578	-0,100952
2,252044	-0,465780	30,729	-0,100942