Folder: Nanoindentation_Analysis/Nanoindentation Datenauswertung/data/MEMS Resolution Test (part 4)

File: MEMS step test,1nm,10Hz-2
Quasi static measurement routine
Tip parameters (shape,radius, material...)
17.08.2022

Piezo position[nm]	MEMS displ.[nm]	Time[ms]	Cap [pf]	Temp [°C]	Rh [%]
eoh
2,783926	0,071256	0,220	-0,070796	22,460000	56,795000
2,784927	0,870262	2,572	-0,070462	22,460000	56,780000
2,784948	0,901802	3,025	-0,070449	22,460000	56,780000
2,784902	0,916988	3,477	-0,070443	22,460000	56,780000
2,784955	0,601591	3,929	-0,070575	22,460000	56,780000
2,784958	0,633130	4,381	-0,070562	22,460000	56,780000
2,784950	0,916988	4,833	-0,070443	22,460000	56,780000
2,784913	0,696210	5,286	-0,070535	22,460000	56,780000
2,784946	0,885448	5,740	-0,070456	22,460000	56,780000
2,784939	0,719572	6,194	-0,070525	22,470000	56,795000
2,784926	0,379645	6,671	-0,070667	22,470000	56,795000
2,784900	0,679856	7,122	-0,070542	22,470000	56,795000
2,784957	0,878439	7,574	-0,070459	22,470000	56,795000
2,784935	0,553697	8,026	-0,070595	22,470000	56,755000
2,784925	0,704387	8,479	-0,070532	22,470000	56,755000
2,784896	0,735926	8,930	-0,070519	22,470000	56,755000
2,784896	0,782652	9,385	-0,070499	22,470000	56,755000
2,784917	0,767466	9,835	-0,070505	22,470000	56,755000
2,784922	0,885448	10,288	-0,070456	22,460000	56,740000
2,784891	0,901802	10,740	-0,070449	22,460000	56,740000
2,784902	0,727749	11,193	-0,070522	22,460000	56,740000
2,784971	0,916988	11,645	-0,070443	22,460000	56,740000
2,784933	1,060668	12,099	-0,070383	22,460000	56,755000
2,783961	-0,230123	13,483	-0,070922	22,460000	56,755000
2,783933	-0,158867	13,934	-0,070893	22,460000	56,770000
2,783907	0,023363	14,386	-0,070816	22,460000	56,770000
2,783932	-0,427538	14,840	-0,071005	22,460000	56,770000
2,783941	-0,268672	15,302	-0,070938	22,460000	56,770000
2,783935	-0,119150	15,753	-0,070876	22,460000	56,770000
2,783949	-0,127327	16,207	-0,070879	22,460000	56,755000
2,783941	-0,087610	16,660	-0,070863	22,460000	56,755000
2,783963	-0,459078	17,112	-0,071018	22,460000	56,755000
2,783986	-0,308388	17,565	-0,070955	22,460000	56,755000
2,783939	-0,586405	18,019	-0,071071	22,460000	56,755000
2,783971	-0,308388	18,470	-0,070955	22,460000	56,755000
2,783940	-0,167044	18,923	-0,070896	22,460000	56,755000
2,783918	-0,395998	19,377	-0,070992	22,460000	56,755000
2,783917	-0,475432	19,830	-0,071025	22,460000	56,755000
2,783908	-0,253486	20,283	-0,070932	22,460000	56,740000
2,783987	-0,348105	20,738	-0,070972	22,460000	56,740000
2,783982	-0,102796	21,190	-0,070869	22,460000	56,740000
2,783970	-0,395998	21,643	-0,070992	22,460000	56,740000
2,783955	-0,435715	22,096	-0,071008	22,460000	56,740000
2,783965	-0,404175	22,550	-0,070995	22,460000	56,740000
2,783912	-0,285025	23,002	-0,070945	22,460000	56,740000
2,784945	-0,221946	23,441	-0,070919	22,460000	56,740000
2,784920	0,790829	24,845	-0,070496	22,460000	56,740000
2,784928	0,300211	25,298	-0,070701	22,460000	56,740000
2,784917	0,696210	25,752	-0,070535	22,460000	56,740000
2,784981	0,711395	26,204	-0,070529	22,460000	56,770000
2,784917	0,641307	26,659	-0,070558	22,460000	56,770000
2,784945	0,561874	27,115	-0,070591	22,460000	56,770000
2,784944	0,744103	27,569	-0,070515	22,460000	56,770000
2,784947	0,561874	28,023	-0,070591	22,460000	56,740000
2,784876	1,337517	28,473	-0,070267	22,460000	56,740000
2,784886	0,664670	28,933	-0,070548	22,460000	56,740000
2,784952	0,593414	29,383	-0,070578	22,460000	56,740000
2,784952	0,696210	29,839	-0,070535	22,460000	56,740000
2,784995	0,537343	30,294	-0,070602	22,460000	56,730000
2,784958	0,063079	30,746	-0,070800	22,460000	56,730000
2,784930	0,466087	31,200	-0,070631	22,460000	56,730000
2,784958	0,497626	31,651	-0,070618	22,460000	56,730000
2,784955	0,505803	32,102	-0,070615	22,460000	56,730000
2,784885	0,585237	32,554	-0,070582	22,460000	56,730000
2,784927	0,799006	33,010	-0,070492	22,460000	56,730000
2,784897	0,285025	33,464	-0,070707	22,460000	56,730000
2,784965	0,459078	33,918	-0,070634	22,460000	56,730000
2,784944	0,063079	34,369	-0,070800	22,470000	56,740000
2,783925	-0,530334	35,754	-0,071048	22,470000	56,740000
2,783957	-0,387821	36,205	-0,070988	22,470000	56,770000
2,783939	-0,341096	36,660	-0,070969	22,470000	56,770000
2,784043	-0,641307	37,112	-0,071094	22,470000	56,770000
2,783958	-0,720741	37,563	-0,071127	22,470000	56,770000
2,783902	-0,450901	38,013	-0,071015	22,470000	56,770000
2,783892	-0,522157	38,464	-0,071044	22,470000	56,770000
2,783941	-0,490618	38,915	-0,071031	22,470000	56,770000
2,783956	-0,807183	39,366	-0,071164	22,470000	56,770000
2,783902	-0,926333	39,821	-0,071213	22,470000	56,770000
2,783927	-0,727749	40,275	-0,071130	22,460000	56,740000
2,783937	-0,490618	40,728	-0,071031	22,460000	56,740000
2,783938	-0,949695	41,180	-0,071223	22,460000	56,740000
2,783933	-0,846899	41,631	-0,071180	22,460000	56,740000
2,783904	-0,989412	42,083	-0,071240	22,460000	56,755000
2,783989	-0,846899	42,535	-0,071180	22,460000	56,755000
2,783971	-0,909979	42,985	-0,071207	22,460000	56,755000
2,783932	-1,060668	43,436	-0,071270	22,460000	56,755000
2,783977	-0,681024	43,889	-0,071111	22,460000	56,755000
2,783939	-1,186827	44,342	-0,071322	22,460000	56,755000
2,784010	-0,989412	44,794	-0,071240	22,460000	56,755000
2,783918	-0,775643	45,246	-0,071150	22,460000	56,755000
2,784878	0,008177	46,634	-0,070823	22,460000	56,770000
2,784964	0,000000	47,085	-0,070826	22,460000	56,770000
2,784927	0,285025	47,538	-0,070707	22,460000	56,770000
2,784966	0,165875	47,990	-0,070757	22,460000	56,755000
2,784943	0,134336	48,443	-0,070770	22,460000	56,755000
2,784917	0,197415	48,896	-0,070744	22,460000	56,755000
2,784911	-0,134336	49,346	-0,070882	22,460000	56,755000
2,784933	-0,134336	49,800	-0,070882	22,460000	56,755000
2,784916	-0,364459	50,251	-0,070979	22,460000	56,755000
2,785007	0,023363	50,702	-0,070816	22,460000	56,755000
2,784929	-0,094619	51,153	-0,070866	22,460000	56,755000
2,785010	-0,016354	51,606	-0,070833	22,460000	56,755000
2,784963	-0,127327	52,057	-0,070879	22,460000	56,755000
2,784875	-0,404175	52,510	-0,070995	22,460000	56,755000
2,785006	-0,332919	52,964	-0,070965	22,460000	56,755000
2,784881	-0,079433	53,420	-0,070859	22,460000	56,755000
2,784933	0,071256	53,872	-0,070796	22,460000	56,755000
2,784966	0,046725	54,322	-0,070807	22,460000	56,755000
2,784950	0,046725	54,773	-0,070807	22,460000	56,755000
2,784883	-0,308388	55,226	-0,070955	22,460000	56,755000
2,784978	-0,609767	55,677	-0,071081	22,460000	56,755000
2,784942	-0,427538	56,130	-0,071005	22,460000	56,755000
2,784945	-0,071256	56,584	-0,070856	22,460000	56,755000
2,783904	-1,179818	57,970	-0,071319	22,460000	56,740000
2,783922	-1,147110	58,421	-0,071306	22,460000	56,740000
2,783928	-1,360880	58,874	-0,071395	22,460000	56,740000
2,783946	-1,408773	59,328	-0,071415	22,460000	56,740000
2,783882	-1,360880	59,781	-0,071395	22,460000	56,740000
2,783879	-1,314154	60,234	-0,071375	22,460000	56,740000
2,783928	-1,432136	60,686	-0,071425	22,460000	56,740000
2,783989	-1,566472	61,138	-0,071481	22,460000	56,740000
2,784012	-1,480030	61,590	-0,071445	22,460000	56,740000
2,783920	-1,471853	62,041	-0,071441	22,450000	56,755000
2,783875	-1,440313	62,493	-0,071428	22,450000	56,755000
2,783932	-1,637728	62,944	-0,071511	22,450000	56,755000
2,783917	-1,289623	63,397	-0,071365	22,450000	56,755000
2,783918	-1,242898	63,851	-0,071346	22,450000	56,755000
2,783937	-1,274437	64,303	-0,071359	22,450000	56,755000
2,784003	-1,448490	64,755	-0,071432	22,450000	56,755000
2,783947	-1,526755	65,205	-0,071464	22,450000	56,755000
2,783895	-1,297800	65,658	-0,071369	22,450000	56,755000
2,784008	-1,345694	66,111	-0,071389	22,460000	56,740000
2,783959	-1,432136	66,565	-0,071425	22,460000	56,740000
2,783931	-1,914576	67,021	-0,071626	22,460000	56,740000
2,783957	-1,599180	67,473	-0,071495	22,460000	56,740000
2,784987	-0,348105	68,856	-0,070972	22,460000	56,755000
2,784969	-0,624953	69,306	-0,071087	22,460000	56,755000
2,784921	-0,459078	69,758	-0,071018	22,460000	56,755000
2,784940	-0,656493	70,211	-0,071101	22,450000	56,730000
2,784933	-0,411184	70,663	-0,070998	22,450000	56,730000
2,784949	-0,506971	71,116	-0,071038	22,450000	56,730000
2,784908	-0,561874	71,566	-0,071061	22,450000	56,730000
2,784935	-0,475432	72,017	-0,071025	22,450000	56,730000
2,784964	-0,775643	72,468	-0,071150	22,450000	56,730000
2,784948	-0,332919	72,920	-0,070965	22,450000	56,730000
2,784871	-0,696210	73,371	-0,071117	22,450000	56,730000
2,784958	-0,435715	73,823	-0,071008	22,450000	56,730000
2,784928	-0,379645	74,275	-0,070985	22,460000	56,755000
2,784974	-0,649484	74,729	-0,071098	22,460000	56,755000
2,784972	-0,696210	75,186	-0,071117	22,460000	56,755000
2,784962	-0,442724	75,636	-0,071011	22,460000	56,755000
2,784920	-0,641307	76,087	-0,071094	22,460000	56,755000
2,784900	-0,570051	76,544	-0,071064	22,460000	56,755000
2,784907	-0,578228	76,998	-0,071068	22,460000	56,755000
2,785026	-0,767466	77,455	-0,071147	22,460000	56,755000
2,784971	-0,586405	77,908	-0,071071	22,460000	56,755000
2,784930	-0,688033	78,363	-0,071114	22,460000	56,715000
2,784947	-0,656493	78,815	-0,071101	22,460000	56,715000
2,783989	-1,464844	80,200	-0,071438	22,460000	56,740000
2,783995	-1,614365	80,653	-0,071501	22,460000	56,740000
2,783982	-1,606188	81,107	-0,071498	22,460000	56,740000
2,783962	-1,670436	81,557	-0,071524	22,460000	56,740000
2,783930	-1,685622	82,010	-0,071531	22,460000	56,770000
2,783926	-1,511569	82,463	-0,071458	22,460000	56,770000
2,783952	-1,559463	82,914	-0,071478	22,460000	56,770000
2,783883	-1,408773	83,366	-0,071415	22,460000	56,770000
2,783962	-1,670436	83,867	-0,071524	22,460000	56,770000
2,783964	-1,599180	84,327	-0,071495	22,460000	56,770000
2,783940	-1,480030	84,789	-0,071445	22,460000	56,770000
2,783940	-1,211358	85,244	-0,071333	22,460000	56,770000
2,784016	-1,274437	85,711	-0,071359	22,460000	56,770000
2,783932	-1,195004	86,166	-0,071326	22,460000	56,730000
2,783972	-1,353871	86,636	-0,071392	22,460000	56,730000
2,783974	-1,480030	87,090	-0,071445	22,460000	56,730000
2,783958	-1,234721	87,544	-0,071342	22,460000	56,730000
2,783973	-1,416950	87,997	-0,071418	22,460000	56,700000
2,783950	-1,464844	88,451	-0,071438	22,460000	56,700000
2,783936	-1,488206	88,936	-0,071448	22,460000	56,700000
2,784007	-1,321163	89,396	-0,071378	22,460000	56,700000
2,783952	-1,526755	89,849	-0,071464	22,460000	56,700000
2,783905	-1,226544	90,050	-0,071339	22,460000	56,770000

File: MEMS step test,1nm,10Hz-3
Quasi static measurement routine
Tip parameters (shape,radius, material...)
17.08.2022

Piezo position[nm]	MEMS displ.[nm]	Time[ms]	Cap [pf]	Temp [°C]	Rh [%]
eoh
2,783894	0,513980	0,207	-0,071418	22,460000	56,730000
2,784865	0,996421	2,559	-0,071217	22,460000	56,740000
2,784908	1,107394	3,011	-0,071170	22,460000	56,740000
2,784892	0,909979	3,461	-0,071253	22,460000	56,740000
2,784916	0,672847	3,911	-0,071352	22,460000	56,740000
2,784905	0,885448	4,362	-0,071263	22,460000	56,740000
2,784842	0,767466	4,813	-0,071313	22,460000	56,740000
2,784878	0,799006	5,265	-0,071299	22,460000	56,740000
2,784840	0,696210	5,721	-0,071342	22,460000	56,740000
2,784874	0,490618	6,173	-0,071428	22,460000	56,740000
2,784873	0,838722	6,624	-0,071283	22,460000	56,740000
2,784916	0,878439	7,078	-0,071266	22,460000	56,740000
2,784899	0,799006	7,530	-0,071299	22,460000	56,740000
2,784946	0,601591	7,981	-0,071382	22,470000	56,730000
2,784882	0,909979	8,433	-0,071253	22,470000	56,730000
2,784905	0,744103	8,883	-0,071322	22,470000	56,730000
2,784894	0,609767	9,335	-0,071378	22,470000	56,730000
2,784855	1,012775	9,788	-0,071210	22,470000	56,730000
2,784920	1,297800	10,241	-0,071091	22,470000	56,730000
2,784879	0,679856	10,693	-0,071349	22,470000	56,730000
2,784906	0,679856	11,145	-0,071349	22,470000	56,730000
2,784915	0,807183	11,597	-0,071296	22,470000	56,730000
2,784960	0,704387	12,049	-0,071339	22,460000	56,740000
2,783856	-0,467255	13,432	-0,071829	22,460000	56,740000
2,783867	-0,356282	13,885	-0,071782	22,460000	56,740000
2,783913	-0,087610	14,338	-0,071670	22,460000	56,740000
2,783850	-0,189238	14,788	-0,071712	22,460000	56,740000
2,783922	-0,348105	15,241	-0,071779	22,460000	56,740000
2,783954	-0,704387	15,692	-0,071928	22,460000	56,740000
2,783906	-0,434547	16,146	-0,071815	22,460000	56,740000
2,783919	-0,237132	16,598	-0,071732	22,460000	56,740000
2,783876	-0,467255	17,050	-0,071829	22,460000	56,740000
2,783906	-0,197415	17,501	-0,071716	22,460000	56,740000
2,783905	-0,197415	17,955	-0,071716	22,460000	56,730000
2,783879	-0,522157	18,409	-0,071852	22,460000	56,730000
2,783916	-0,237132	18,859	-0,071732	22,460000	56,730000
2,783905	-0,127327	19,311	-0,071687	22,460000	56,730000
2,783908	-0,102796	19,763	-0,071676	22,460000	56,740000
2,783911	-0,372636	20,215	-0,071789	22,460000	56,740000
2,783882	-0,339928	20,666	-0,071775	22,460000	56,740000
2,783930	-0,119150	21,117	-0,071683	22,460000	56,740000
2,783860	-0,023363	21,567	-0,071643	22,460000	56,740000
2,783907	-0,356282	22,020	-0,071782	22,460000	56,730000
2,783928	-0,578228	22,471	-0,071875	22,460000	56,730000
2,783927	-0,419361	22,922	-0,071809	22,460000	56,730000
2,784951	-0,364459	23,360	-0,071786	22,460000	56,730000
2,784924	0,624953	24,763	-0,071372	22,460000	56,730000
2,784902	0,459078	25,217	-0,071441	22,460000	56,730000
2,784907	0,435715	25,670	-0,071451	22,460000	56,730000
2,784895	0,530334	26,124	-0,071412	22,460000	56,730000
2,784890	0,641307	26,576	-0,071365	22,460000	56,730000
2,784958	0,815360	27,030	-0,071292	22,460000	56,730000
2,784938	0,237132	27,483	-0,071534	22,460000	56,730000
2,784890	0,545520	27,935	-0,071405	22,460000	56,715000
2,784876	0,395998	28,389	-0,071468	22,460000	56,715000
2,784892	0,649484	28,842	-0,071362	22,460000	56,715000
2,784925	0,505803	29,295	-0,071422	22,460000	56,715000
2,784951	0,498794	29,745	-0,071425	22,460000	56,740000
2,784931	0,561874	30,196	-0,071398	22,460000	56,740000
2,784860	0,260495	30,648	-0,071524	22,460000	56,740000
2,784924	0,142513	31,099	-0,071574	22,460000	56,740000
2,784930	0,435715	31,550	-0,071451	22,460000	56,740000
2,784878	0,846899	32,000	-0,071279	22,460000	56,755000
2,784905	0,513980	32,452	-0,071418	22,460000	56,755000
2,784884	0,119150	32,904	-0,071583	22,460000	56,755000
2,784915	0,016354	33,358	-0,071626	22,460000	56,755000
2,784922	0,079433	33,811	-0,071600	22,460000	56,755000
2,784887	0,197415	34,263	-0,071551	22,460000	56,755000
2,783870	-0,966049	35,647	-0,072037	22,460000	56,755000
2,783895	-0,467255	36,102	-0,071829	22,460000	56,740000
2,783893	-0,933341	36,553	-0,072023	22,460000	56,740000
2,783907	-0,522157	37,008	-0,071852	22,460000	56,740000
2,783921	-0,735926	37,460	-0,071941	22,460000	56,740000
2,783936	-0,815360	37,917	-0,071974	22,460000	56,740000
2,783920	-1,147110	38,369	-0,072113	22,460000	56,740000
2,783922	-1,115571	38,819	-0,072100	22,460000	56,740000
2,783944	-0,893625	39,274	-0,072007	22,460000	56,740000
2,783890	-1,312986	39,727	-0,072182	22,460000	56,730000
2,783886	-0,807183	40,181	-0,071971	22,460000	56,730000
2,783902	-0,641307	40,633	-0,071901	22,460000	56,730000
2,783902	-1,029129	41,094	-0,072063	22,460000	56,730000
2,783924	-0,807183	41,547	-0,071971	22,460000	56,730000
2,783879	-1,186827	42,001	-0,072129	22,460000	56,755000
2,783964	-0,799006	42,454	-0,071967	22,460000	56,755000
2,783956	-1,115571	42,907	-0,072100	22,460000	56,755000
2,783917	-1,186827	43,361	-0,072129	22,460000	56,755000
2,783917	-0,862085	43,811	-0,071994	22,460000	56,755000
2,783897	-0,966049	44,265	-0,072037	22,460000	56,755000
2,783879	-0,862085	44,726	-0,071994	22,460000	56,755000
2,783956	-0,878439	45,178	-0,072000	22,460000	56,755000
2,784964	-0,008177	46,568	-0,071637	22,460000	56,740000
2,784941	-0,419361	47,019	-0,071809	22,460000	56,740000
2,784914	0,008177	47,478	-0,071630	22,460000	56,740000
2,784906	-0,228955	47,933	-0,071729	22,460000	56,730000
2,784888	-0,387821	48,386	-0,071795	22,460000	56,730000
2,784923	0,213769	48,840	-0,071544	22,460000	56,730000
2,784930	0,031540	49,294	-0,071620	22,460000	56,730000
2,784885	0,157698	49,751	-0,071567	22,460000	56,740000
2,784893	-0,253486	50,204	-0,071739	22,460000	56,740000
2,784881	-0,498794	50,655	-0,071842	22,460000	56,740000
2,784885	-0,174052	51,108	-0,071706	22,460000	56,740000
2,784958	0,063079	51,559	-0,071607	22,460000	56,740000
2,784923	-0,268672	52,011	-0,071746	22,460000	56,740000
2,784899	-0,119150	52,461	-0,071683	22,460000	56,740000
2,784959	-0,142513	52,914	-0,071693	22,460000	56,740000
2,784873	-0,467255	53,364	-0,071829	22,460000	56,740000
2,784964	-0,411184	53,817	-0,071805	22,470000	56,730000
2,784960	-0,079433	54,268	-0,071667	22,470000	56,730000
2,784906	0,110973	54,729	-0,071587	22,470000	56,730000
2,784876	-0,237132	55,191	-0,071732	22,470000	56,730000
2,784942	-0,094619	55,641	-0,071673	22,470000	56,730000
2,784888	-0,023363	56,107	-0,071643	22,460000	56,700000
2,784944	-0,205592	56,562	-0,071719	22,460000	56,700000
2,783928	-1,258084	57,969	-0,072159	22,450000	56,730000
2,783876	-0,759289	58,422	-0,071951	22,450000	56,730000
2,783894	-1,582826	58,873	-0,072295	22,450000	56,730000
2,783907	-1,985833	59,328	-0,072463	22,450000	56,730000
2,783913	-1,591003	59,789	-0,072298	22,460000	56,740000
2,783902	-1,645905	60,242	-0,072321	22,460000	56,740000
2,783949	-1,614365	60,707	-0,072308	22,460000	56,740000
2,783888	-1,566472	61,167	-0,072288	22,460000	56,740000
2,783916	-1,463676	61,617	-0,072245	22,460000	56,740000
2,783926	-1,740524	62,070	-0,072361	22,460000	56,755000
2,783873	-1,385410	62,521	-0,072212	22,460000	56,755000
2,783890	-1,392419	62,972	-0,072215	22,460000	56,755000
2,783963	-1,369057	63,423	-0,072206	22,460000	56,755000
2,783961	-1,765055	63,877	-0,072371	22,460000	56,755000
2,783885	-1,558295	64,355	-0,072285	22,460000	56,755000
2,783945	-1,796595	64,809	-0,072384	22,460000	56,755000
2,783915	-1,400596	65,269	-0,072219	22,460000	56,755000
2,783944	-1,440313	65,720	-0,072235	22,450000	56,730000
2,783935	-1,463676	66,173	-0,072245	22,450000	56,730000
2,783915	-1,534932	66,629	-0,072275	22,450000	56,730000
2,783908	-2,017373	67,117	-0,072477	22,450000	56,730000
2,783912	-1,914576	67,571	-0,072434	22,450000	56,730000
2,784927	-0,744103	68,957	-0,071944	22,460000	56,715000
2,784936	-1,004598	69,415	-0,072053	22,460000	56,715000
2,784941	-0,498794	69,877	-0,071842	22,460000	56,740000
2,784943	-0,696210	70,354	-0,071924	22,460000	56,740000
2,784917	-0,530334	70,811	-0,071855	22,460000	56,740000
2,784903	-0,719572	71,266	-0,071934	22,460000	56,740000
2,784908	-0,681024	71,717	-0,071918	22,450000	56,730000
2,784897	-0,624953	72,173	-0,071895	22,450000	56,730000
2,784916	-0,823537	72,624	-0,071978	22,450000	56,730000
2,784901	-0,585237	73,080	-0,071878	22,450000	56,730000
2,784909	-0,616776	73,547	-0,071891	22,450000	56,730000
2,784858	-0,664670	74,003	-0,071911	22,450000	56,730000
2,784906	-0,727749	74,456	-0,071938	22,450000	56,730000
2,784911	-0,681024	74,923	-0,071918	22,450000	56,730000
2,784932	-0,926333	75,378	-0,072021	22,450000	56,730000
2,784859	-0,688033	75,833	-0,071921	22,460000	56,730000
2,784905	-0,878439	76,285	-0,072000	22,460000	56,730000
2,784924	-0,759289	76,737	-0,071951	22,460000	56,730000
2,784884	-0,744103	77,189	-0,071944	22,460000	56,730000
2,784902	-0,752280	77,647	-0,071948	22,460000	56,730000
2,784923	-1,084031	78,107	-0,072086	22,460000	56,730000
2,784916	-0,530334	78,568	-0,071855	22,460000	56,730000
2,784942	-1,138934	79,025	-0,072109	22,460000	56,730000
2,783920	-1,939107	80,433	-0,072444	22,450000	56,715000
2,783931	-1,828134	80,900	-0,072397	22,450000	56,715000
2,783941	-2,128346	81,358	-0,072523	22,450000	56,715000
2,783892	-1,811780	81,813	-0,072391	22,450000	56,715000
2,783896	-2,065266	82,278	-0,072497	22,450000	56,715000
2,783928	-1,970647	82,750	-0,072457	22,450000	56,715000
2,783916	-2,184416	83,213	-0,072546	22,450000	56,715000
2,783973	-2,050080	83,664	-0,072490	22,460000	56,730000
2,783938	-1,772064	84,124	-0,072374	22,460000	56,730000
2,783926	-2,017373	84,581	-0,072477	22,460000	56,730000
2,783896	-2,159885	85,040	-0,072536	22,460000	56,730000
2,783854	-1,828134	85,493	-0,072397	22,460000	56,730000
2,783939	-2,033726	85,963	-0,072483	22,460000	56,730000
2,783909	-2,065266	86,433	-0,072497	22,460000	56,730000
2,783902	-2,270858	86,886	-0,072583	22,460000	56,730000
2,783934	-2,104983	87,337	-0,072513	22,460000	56,730000
2,783912	-2,159885	87,799	-0,072536	22,470000	56,730000
2,783919	-2,025549	88,249	-0,072480	22,470000	56,730000
2,783952	-1,962470	88,740	-0,072454	22,470000	56,730000
2,783908	-2,033726	89,192	-0,072483	22,470000	56,730000
2,783851	-1,859674	89,666	-0,072411	22,470000	56,730000
2,783913	-2,065266	90,121	-0,072497	22,470000	56,730000
2,783919	-2,120169	90,336	-0,072520	22,470000	56,730000