Folder: Nanoindentation_Analysis/Nanoindentation Datenauswertung/data/MEMS Dynamik

File: test-1, 5nm, 25nms,0,2um
Quasi static measurement routine
Tip parameters (shape,radius, material...)
15.07.2022

Piezo position[nm]	MEMS displ.[nm]	Time[ms]	Cap [pf]
eoh
2,806015	-0,897807	0,185	-0,092534
2,811064	0,748173	0,385	-0,091820
2,816006	6,297028	0,586	-0,089412
2,821065	10,198778	0,786	-0,087718
2,826022	11,844758	0,986	-0,087004
2,831043	14,772195	1,186	-0,085733
2,836026	17,027965	1,386	-0,084754
2,841064	20,624820	1,586	-0,083193
2,846056	23,306992	1,787	-0,082029
2,851022	25,746148	1,987	-0,080971
2,856051	28,367566	2,187	-0,079833
2,861001	30,257686	2,387	-0,079013
2,866094	32,818350	2,587	-0,077901
2,871042	35,318260	2,787	-0,076816
2,876026	38,488713	2,987	-0,075440
2,881043	40,744483	3,187	-0,074461
2,886051	44,098322	3,387	-0,073006
2,891089	46,536353	3,587	-0,071948
2,896029	49,401912	3,788	-0,070704
2,901085	51,963701	3,988	-0,069592
2,906016	54,219470	4,188	-0,068613
2,911076	55,865450	4,388	-0,067899
2,916030	57,998587	4,588	-0,066973
2,921060	59,645692	4,788	-0,066258
2,926060	61,352427	4,988	-0,065518
2,931097	65,011161	5,188	-0,063930
2,936023	67,937473	5,389	-0,062660
2,941077	69,949102	5,589	-0,061787
2,946054	72,693152	5,789	-0,060596
2,951042	76,229254	5,989	-0,059061
2,956024	78,485023	6,189	-0,058082
2,960990	80,375144	6,389	-0,057262
2,966011	83,301456	6,589	-0,055992
2,971043	86,289648	6,789	-0,054695
2,976017	89,155206	6,989	-0,053451
2,981040	92,447167	7,189	-0,052022
2,986009	95,922514	7,389	-0,050514
2,991036	98,056776	7,589	-0,049588
2,996038	101,532123	7,790	-0,048080
3,000997	104,763330	7,990	-0,046677
3,006026	107,079853	8,190	-0,045672
3,006019	107,141732	8,390	-0,045645
3,006053	107,079853	8,425	-0,045672
3,006048	105,738767	8,626	-0,046254
3,005982	105,189732	8,827	-0,046492
3,006089	105,128978	9,027	-0,046519
3,006019	104,335802	9,228	-0,046863
3,005977	104,214295	9,428	-0,046916
3,005997	104,397681	9,628	-0,046836
3,006009	103,666385	9,828	-0,047153
3,006018	102,751701	10,028	-0,047550
3,006009	102,324174	10,228	-0,047736
3,006081	102,873209	10,428	-0,047498
3,006070	101,958525	10,629	-0,047895
3,005983	101,714385	10,829	-0,048000
3,006087	101,592877	11,029	-0,048053
3,005993	101,592877	11,230	-0,048053
3,006011	102,202666	11,430	-0,047789
3,006076	101,592877	11,631	-0,048053
3,006008	101,409490	11,831	-0,048133
3,006024	101,348736	12,031	-0,048159
3,006054	101,532123	12,231	-0,048080
3,006018	101,592877	12,432	-0,048053
3,005967	101,592877	12,632	-0,048053
3,006025	101,287982	12,832	-0,048186
3,006013	101,227229	13,033	-0,048212
3,006034	100,922334	13,233	-0,048344
3,006057	101,104596	13,434	-0,048265
3,000975	98,178283	13,466	-0,049535
2,996006	93,971639	13,667	-0,051361
2,991001	90,374784	13,867	-0,052922
2,985982	87,081698	14,067	-0,054351
2,981024	83,301456	14,267	-0,055992
2,975958	79,583093	14,467	-0,057605
2,971017	76,960550	14,668	-0,058744
2,966017	73,058801	14,868	-0,060437
2,960993	69,217805	15,068	-0,062104
2,956018	65,681704	15,268	-0,063639
2,951034	62,572005	15,468	-0,064988
2,946033	58,426114	15,669	-0,066788
2,941011	54,585118	15,869	-0,068455
2,936054	51,657681	16,069	-0,069725
2,931056	48,060826	16,269	-0,071286
2,925974	44,585478	16,469	-0,072794
2,921022	40,744483	16,669	-0,074461
2,916008	37,208381	16,869	-0,075996
2,911013	33,793788	17,069	-0,077478
2,906060	30,441073	17,269	-0,078933
2,900988	26,538198	17,469	-0,080627
2,896040	23,306992	17,669	-0,082029
2,891059	20,503312	17,869	-0,083246
2,886016	17,149473	18,069	-0,084702
2,880983	15,564246	18,269	-0,085390
2,876011	14,649563	18,469	-0,085787
2,870988	11,905512	18,670	-0,086978
2,866073	11,784004	18,870	-0,087030
2,861052	9,710496	19,070	-0,087930
2,856058	8,857692	19,270	-0,088300
2,851039	7,149833	19,470	-0,089042
2,846037	5,443098	19,670	-0,089782
2,841070	3,918626	19,870	-0,090444
2,836017	3,064696	20,070	-0,090814
2,831060	2,272645	20,270	-0,091158
2,825998	0,261017	20,470	-0,092031
2,821034	-1,324210	20,670	-0,092719
2,816016	-2,910561	20,870	-0,093408
2,811028	-3,763366	21,070	-0,093778
2,805991	-5,104452	21,270	-0,094360

File: test-2,1nm,20nms,0,2um
Quasi static measurement routine
Tip parameters (shape,radius, material...)
15.07.2022

Piezo position[nm]	MEMS displ.[nm]	Time[ms]	Cap [pf]
eoh
2,803928	0,060754	0,180	-0,092693
2,805890	1,585226	0,280	-0,092031
2,807985	3,169328	0,381	-0,091344
2,809856	4,206644	0,481	-0,090894
2,811931	5,731117	0,581	-0,090232
2,813930	7,681992	0,682	-0,089385
2,815966	7,681992	0,782	-0,089385
2,817963	9,572113	0,884	-0,088565
2,819883	10,608304	0,985	-0,088115
2,821935	10,730937	1,086	-0,088062
2,823915	11,767128	1,187	-0,087612
2,825907	12,742566	1,287	-0,087189
2,827914	13,657249	1,389	-0,086792
2,829952	15,242476	1,490	-0,086104
2,831904	15,913018	1,590	-0,085813
2,833917	17,009964	1,690	-0,085337
2,835980	18,412928	1,791	-0,084728
2,837913	19,204979	1,891	-0,084384
2,839924	20,241170	1,993	-0,083935
2,841930	21,521502	2,093	-0,083379
2,843940	22,253924	2,194	-0,083061
2,845906	24,387061	2,295	-0,082135
2,847924	25,240990	2,395	-0,081765
2,849914	26,642830	2,496	-0,081156
2,851886	27,070358	2,596	-0,080971
2,853973	27,862408	2,696	-0,080627
2,855903	28,472197	2,796	-0,080362
2,857949	30,545705	2,896	-0,079462
2,859957	30,606459	2,996	-0,079436
2,861902	31,765283	3,097	-0,078933
2,863935	32,922982	3,197	-0,078431
2,865879	34,265193	3,299	-0,077848
2,867907	34,873857	3,399	-0,077584
2,869954	35,850419	3,500	-0,077160
2,871936	36,886611	3,601	-0,076710
2,873937	38,106189	3,701	-0,076181
2,875938	39,081626	3,801	-0,075758
2,877947	40,361958	3,901	-0,075202
2,879924	42,007939	4,001	-0,074488
2,881944	42,739235	4,101	-0,074170
2,883849	43,714673	4,202	-0,073747
2,885960	45,117638	4,303	-0,073138
2,887955	46,214583	4,405	-0,072662
2,889931	46,580231	4,505	-0,072503
2,891914	48,775247	4,606	-0,071551
2,893944	49,263528	4,706	-0,071339
2,895997	49,689930	4,806	-0,071154
2,897911	51,701559	4,906	-0,070281
2,899944	51,945700	5,006	-0,070175
2,901932	53,287910	5,108	-0,069592
2,903893	53,897699	5,209	-0,069328
2,905873	53,835820	5,309	-0,069354
2,907903	55,178031	5,409	-0,068772
2,909897	55,847449	5,509	-0,068481
2,911912	56,884766	5,611	-0,068031
2,913863	57,981711	5,711	-0,067555
2,915909	58,347359	5,813	-0,067396
2,917915	59,079781	5,914	-0,067079
2,919949	60,420867	6,015	-0,066497
2,921910	60,481621	6,115	-0,066470
2,923934	61,701199	6,216	-0,065941
2,925928	62,615882	6,316	-0,065544
2,927958	63,835460	6,417	-0,065015
2,929919	64,810898	6,519	-0,064591
2,931971	65,847089	6,619	-0,064142
2,933929	66,883281	6,726	-0,063692
2,935907	67,553823	6,826	-0,063401
2,937988	68,956788	6,927	-0,062792
2,939946	70,663522	7,028	-0,062051
2,941923	71,334065	7,133	-0,061760
2,943894	72,737030	7,234	-0,061151
2,945944	73,956608	7,334	-0,060622
2,947939	75,053553	7,436	-0,060146
2,949878	75,297694	7,537	-0,060040
2,951886	76,943674	7,637	-0,059326
2,953959	78,040620	7,739	-0,058850
2,955917	79,382831	7,840	-0,058267
2,957891	80,236760	7,942	-0,057896
2,959923	80,845424	8,042	-0,057632
2,961959	81,760108	8,142	-0,057235
2,963978	83,467967	8,243	-0,056494
2,965912	84,686420	8,343	-0,055965
2,967946	85,905998	8,443	-0,055436
2,969940	86,515787	8,543	-0,055171
2,971951	88,954943	8,644	-0,054113
2,973842	89,199084	8,744	-0,054007
2,975929	90,235275	8,845	-0,053557
2,977893	91,942009	8,945	-0,052816
2,979901	93,100833	9,045	-0,052313
2,981905	94,564552	9,146	-0,051678
2,983938	95,539990	9,247	-0,051255
2,985921	96,454673	9,349	-0,050858
2,987938	98,282915	9,450	-0,050064
2,989912	99,197599	9,560	-0,049667
2,991885	100,112282	9,661	-0,049271
2,993920	101,148474	9,761	-0,048821
2,995924	102,794454	9,861	-0,048106
2,997944	104,075911	9,963	-0,047550
2,999954	104,990594	10,064	-0,047153
3,001913	105,782645	10,164	-0,046810
3,003977	107,062977	10,264	-0,046254
3,003895	106,941469	10,375	-0,046307
3,003906	106,209047	10,475	-0,046625
3,003963	105,904153	10,576	-0,046757
3,003922	106,331680	10,676	-0,046571
3,003891	106,331680	10,782	-0,046571
3,003932	106,087540	10,883	-0,046677
3,003898	105,721891	10,983	-0,046836
3,003919	105,538504	11,083	-0,046916
3,003878	105,477751	11,185	-0,046942
3,003914	105,356243	11,285	-0,046995
3,003884	105,416997	11,386	-0,046968
3,003898	105,233610	11,487	-0,047048
3,003894	105,904153	11,593	-0,046757
3,003863	105,233610	11,693	-0,047048
3,003946	104,563067	11,793	-0,047339
3,003909	104,990594	11,894	-0,047153
3,003891	104,502313	11,995	-0,047365
3,003942	105,051348	12,096	-0,047127
3,003945	104,684575	12,196	-0,047286
3,003919	103,710262	12,297	-0,047709
3,003875	104,136665	12,397	-0,047524
3,003836	104,379680	12,497	-0,047418
3,003891	103,769891	12,597	-0,047683
3,003914	103,343489	12,698	-0,047868
3,003938	103,587630	12,799	-0,047762
3,003886	103,221981	12,900	-0,047921
3,003929	102,794454	13,001	-0,048106
3,003886	102,917087	13,103	-0,048053
3,003943	102,551438	13,204	-0,048212
3,003897	102,612192	13,305	-0,048186
3,003902	103,343489	13,406	-0,047868
3,003909	103,221981	13,508	-0,047921
3,003916	102,612192	13,611	-0,048186
3,003946	102,794454	13,711	-0,048106
3,003954	102,368052	13,811	-0,048292
3,003883	102,490684	13,911	-0,048238
3,003966	101,514122	14,014	-0,048662
3,003916	102,977841	14,115	-0,048027
3,003878	102,002403	14,215	-0,048450
3,003894	102,246544	14,316	-0,048344
3,003873	102,185790	14,423	-0,048371
3,003890	102,185790	14,524	-0,048371
3,003944	102,368052	14,625	-0,048292
3,003886	102,428805	14,726	-0,048265
3,003853	102,307298	14,836	-0,048318
3,003925	102,490684	14,936	-0,048238
3,003940	102,733700	15,037	-0,048133
3,003931	101,514122	15,142	-0,048662
3,003944	102,307298	15,243	-0,048318
3,003946	102,551438	15,345	-0,048212
3,002909	101,941649	15,427	-0,048477
3,000875	100,234915	15,534	-0,049217
2,998922	98,648564	15,635	-0,049906
2,996907	96,515427	15,737	-0,050832
2,994930	95,235095	15,837	-0,051387
2,992975	94,441919	15,942	-0,051731
2,990892	93,040080	16,043	-0,052340
2,988924	91,820502	16,143	-0,052869
2,986946	89,991134	16,245	-0,053663
2,984882	88,833435	16,346	-0,054166
2,982890	87,004068	16,446	-0,054959
2,980927	85,845244	16,547	-0,055462
2,978953	84,748299	16,647	-0,055938
2,976927	83,040440	16,748	-0,056680
2,974905	80,602409	16,849	-0,057738
2,972985	79,930741	16,949	-0,058029
2,970951	78,955303	17,049	-0,058453
2,968992	77,797604	17,151	-0,058955
2,966914	75,784850	17,253	-0,059829
2,964961	74,871292	17,354	-0,060225
2,962912	73,102679	17,454	-0,060993
2,960917	71,517452	17,554	-0,061681
2,958952	70,481261	17,655	-0,062130
2,956944	68,468507	17,757	-0,063004
2,954905	67,432316	17,859	-0,063454
2,952981	65,664828	17,959	-0,064221
2,950883	64,384496	18,060	-0,064776
2,948899	62,432496	18,161	-0,065624
2,946845	61,152164	18,262	-0,066179
2,944945	59,628816	18,363	-0,066840
2,942922	59,506183	18,464	-0,066894
2,940946	57,799449	18,564	-0,067634
2,938935	56,153469	18,664	-0,068349
2,936940	54,324102	18,764	-0,069143
2,934919	53,043770	18,865	-0,069698
2,932893	51,519297	18,965	-0,070360
2,930924	49,812563	19,066	-0,071101
2,928906	48,592985	19,174	-0,071630
2,926936	47,434161	19,274	-0,072133
2,924912	45,970442	19,374	-0,072768
2,922907	44,263708	19,475	-0,073509
2,920900	43,349024	19,578	-0,073906
2,918941	41,214763	19,678	-0,074832
2,916953	40,117818	19,779	-0,075308
2,914934	39,081626	19,879	-0,075758
2,912932	37,313013	19,980	-0,076525
2,910961	36,093435	20,081	-0,077055
2,908958	34,813103	20,182	-0,077610
2,906925	33,167123	20,283	-0,078325
2,904971	32,435826	20,386	-0,078642
2,902936	30,667213	20,487	-0,079410
2,900940	29,386881	20,588	-0,079965
2,898980	27,375252	20,690	-0,080838
2,896896	26,034166	20,796	-0,081420
2,894971	24,752709	20,896	-0,081977
2,892944	23,290116	20,996	-0,082611
2,890893	21,704889	21,096	-0,083299
2,888917	21,460748	21,196	-0,083405
2,886947	18,290296	21,296	-0,084781
2,884973	19,021592	21,397	-0,084464
2,882867	18,900085	21,497	-0,084517
2,880930	17,375612	21,599	-0,085178
2,878935	17,070718	21,700	-0,085311
2,876998	15,852265	21,800	-0,085839
2,874934	15,547370	21,900	-0,085972
2,872930	14,937581	22,011	-0,086236
2,870906	15,180597	22,111	-0,086131
2,868910	14,022897	22,213	-0,086633
2,866919	13,718003	22,313	-0,086766
2,864962	13,168968	22,415	-0,087004
2,862956	13,108214	22,516	-0,087030
2,860906	12,072023	22,616	-0,087480
2,858883	11,400355	22,716	-0,087771
2,856937	10,303409	22,817	-0,088248
2,854920	10,059269	22,917	-0,088354
2,852922	9,449480	23,018	-0,088618
2,850917	7,681992	23,118	-0,089385
2,848959	8,108394	23,230	-0,089200
2,846955	7,377097	23,331	-0,089518
2,844957	7,072203	23,431	-0,089650
2,842919	6,644675	23,532	-0,089835
2,840952	5,731117	23,645	-0,090232
2,838926	5,426222	23,746	-0,090364
2,836939	4,816433	23,846	-0,090629
2,834896	4,206644	23,960	-0,090894
2,832892	2,926312	24,060	-0,091449
2,830921	3,413468	24,162	-0,091238
2,828961	2,926312	24,263	-0,091449
2,826923	2,072383	24,366	-0,091820
2,824929	1,219578	24,466	-0,092190
2,822945	0,975437	24,566	-0,092296
2,820873	0,913558	24,667	-0,092323
2,818925	-0,427527	24,767	-0,092905
2,816946	-1,219578	24,868	-0,093249
2,814992	-2,134262	24,970	-0,093646
2,812885	-2,073508	25,070	-0,093619
2,810909	-2,683297	25,171	-0,093884
2,808951	-3,170453	25,273	-0,094095
2,806939	-3,902875	25,373	-0,094413
2,804911	-4,999820	25,474	-0,094889
2,803944	-4,451910	25,524	-0,094651

File: test-2,10nm,200nms,0,2um
Quasi static measurement routine
Tip parameters (shape,radius, material...)
15.07.2022

Piezo position[nm]	MEMS displ.[nm]	Time[ms]	Cap [pf]
eoh
2,804018	-0,183387	0,205	-0,094016
2,814003	6,645800	0,255	-0,091052
2,823989	13,778757	0,305	-0,087957
2,833989	20,303049	0,355	-0,085125
2,843952	25,363623	0,405	-0,082929
2,853935	31,155494	0,455	-0,080415
2,863946	35,911173	0,506	-0,078351
2,873961	41,337396	0,556	-0,075996
2,884025	47,007758	0,606	-0,073535
2,893989	52,738875	0,656	-0,071048
2,904047	58,043590	0,707	-0,068746
2,914058	62,127601	0,757	-0,066973
2,924019	65,725581	0,808	-0,065412
2,933984	69,810718	0,859	-0,063639
2,943961	75,663342	0,910	-0,061099
2,953974	80,297514	0,962	-0,059087
2,964012	86,881435	1,024	-0,056230
2,973974	92,064642	1,074	-0,053980
2,983954	97,246724	1,124	-0,051731
2,994024	104,015157	1,174	-0,048794
3,003990	108,831590	1,225	-0,046704
3,003979	106,574696	1,276	-0,047683
3,003965	104,928715	1,327	-0,048397
3,003910	104,318926	1,377	-0,048662
3,003928	104,623821	1,427	-0,048530
3,003935	104,380805	1,477	-0,048635
3,003952	104,015157	1,527	-0,048794
3,003949	103,892524	1,578	-0,048847
3,003885	103,771016	1,628	-0,048900
3,003943	104,136665	1,678	-0,048741
3,003882	102,917087	1,729	-0,049271
3,003951	103,282735	1,780	-0,049112
3,003976	103,953278	1,831	-0,048821
3,003939	102,795579	1,881	-0,049323
3,003950	103,526876	1,932	-0,049006
3,003943	102,551438	1,984	-0,049429
3,004015	103,649509	2,034	-0,048953
3,003879	102,551438	2,085	-0,049429
3,003960	102,795579	2,135	-0,049323
3,004027	102,429931	2,185	-0,049482
3,003924	102,490684	2,235	-0,049456
3,003975	103,039720	2,285	-0,049217
3,004008	102,307298	2,335	-0,049535
3,003900	102,307298	2,385	-0,049535
3,003991	101,820141	2,435	-0,049747
3,003982	101,820141	2,486	-0,049747
3,003930	102,490684	2,536	-0,049456
3,003930	102,551438	2,586	-0,049429
3,003936	102,612192	2,636	-0,049403
3,003943	101,758263	2,686	-0,049773
3,004002	102,185790	2,736	-0,049588
3,003947	102,612192	2,786	-0,049403
3,003962	102,551438	2,836	-0,049429
3,003966	102,733700	2,886	-0,049350
3,003964	102,185790	2,936	-0,049588
3,003978	102,551438	2,986	-0,049429
3,003970	102,125036	3,036	-0,049614
3,003932	102,063157	3,086	-0,049641
3,003948	102,002403	3,137	-0,049667
3,003994	102,125036	3,187	-0,049614
3,003919	102,307298	3,237	-0,049535
3,003930	102,368052	3,287	-0,049509
3,003923	101,636755	3,337	-0,049826
3,003982	102,307298	3,387	-0,049535
3,003908	101,576001	3,437	-0,049853
3,003937	102,125036	3,487	-0,049614
3,003952	101,576001	3,537	-0,049853
3,003960	101,758263	3,587	-0,049773
3,003948	101,880895	3,637	-0,049720
3,003954	101,453368	3,687	-0,049906
3,003915	101,941649	3,737	-0,049694
3,003961	101,576001	3,788	-0,049853
3,003955	101,880895	3,839	-0,049720
3,003944	101,758263	3,889	-0,049773
3,003962	101,697509	3,940	-0,049800
3,003949	101,880895	3,990	-0,049720
3,003949	101,149599	4,041	-0,050038
3,003974	101,758263	4,092	-0,049773
3,003969	101,941649	4,142	-0,049694
3,004002	101,515247	4,200	-0,049879
3,003968	101,758263	4,250	-0,049773
3,003939	101,515247	4,300	-0,049879
3,003952	101,392614	4,350	-0,049932
3,003961	101,697509	4,400	-0,049800
3,003942	101,941649	4,451	-0,049694
3,003957	101,697509	4,503	-0,049800
3,003953	101,636755	4,553	-0,049826
3,003980	101,331860	4,603	-0,049958
3,003953	101,758263	4,653	-0,049773
3,003913	101,697509	4,703	-0,049800
3,003951	101,697509	4,753	-0,049800
3,003997	101,576001	4,803	-0,049853
3,003965	101,515247	4,853	-0,049879
3,003909	101,880895	4,904	-0,049720
3,003977	102,002403	4,955	-0,049667
3,003963	101,636755	5,005	-0,049826
3,003989	101,697509	5,055	-0,049800
3,003974	101,880895	5,105	-0,049720
3,003915	101,697509	5,155	-0,049800
3,003929	101,758263	5,205	-0,049773
3,003978	101,576001	5,255	-0,049853
3,003980	101,697509	5,305	-0,049800
3,003941	102,063157	5,358	-0,049641
3,003942	101,576001	5,408	-0,049853
3,003907	101,880895	5,459	-0,049720
3,003927	101,515247	5,509	-0,049879
3,004008	101,636755	5,560	-0,049826
3,003902	101,576001	5,610	-0,049853
3,003949	101,941649	5,660	-0,049694
3,003967	101,392614	5,711	-0,049932
3,003952	102,125036	5,762	-0,049614
3,004011	101,820141	5,813	-0,049747
3,003956	101,941649	5,863	-0,049694
3,003970	101,880895	5,913	-0,049720
3,003914	101,941649	5,963	-0,049694
3,003981	101,453368	6,013	-0,049906
3,004002	101,149599	6,063	-0,050038
3,004004	101,636755	6,113	-0,049826
3,003970	101,026966	6,163	-0,050091
3,003980	101,453368	6,213	-0,049906
3,003959	101,576001	6,264	-0,049853
3,003992	101,392614	6,314	-0,049932
2,993943	94,625306	6,353	-0,052869
2,983986	87,613857	6,403	-0,055912
2,973936	80,663162	6,453	-0,058929
2,964011	72,614397	6,504	-0,062422
2,953982	65,847089	6,555	-0,065359
2,943972	58,835640	6,606	-0,068402
2,934033	51,945700	6,656	-0,071392
2,923959	44,751989	6,706	-0,074514
2,914037	37,740540	6,757	-0,077557
2,903995	30,850599	6,807	-0,080547
2,893987	24,448940	6,858	-0,083326
2,884018	20,119663	6,908	-0,085205
2,873927	18,595190	6,958	-0,085866
2,864009	15,608124	7,008	-0,087163
2,853923	12,132776	7,059	-0,088671
2,843936	9,388726	7,109	-0,089862
2,833986	6,583921	7,159	-0,091079
2,823982	3,718363	7,210	-0,092323
2,813928	0,549035	7,261	-0,093698
2,803946	-2,316523	7,311	-0,094942