Folder: Nanoindentation_Analysis/Nanoindentation Datenauswertung/data/PDMS (part 10)

File: EM-PDMS-120-10-120-0,8um-1
Quasi static measurement routine
Tip parameters (shape,radius, material...)
26.08.2022

Piezo position[nm]	MEMS displ.[nm]	Time[ms]	Cap [pf]	Temp [°C]	Rh [%]
eoh
1,834020	-0,083425	0,191	-0,135130	22,730000	57,645000
1,843972	-0,158262	1,695	-0,135160	22,730000	57,660000
1,854003	-0,166850	3,201	-0,135163	22,730000	57,660000
1,864021	-0,125137	4,707	-0,135146	22,730000	57,660000
1,873935	-0,125137	6,213	-0,135146	22,730000	57,660000
1,884023	-0,224511	7,718	-0,135186	22,720000	57,655000
1,893909	-0,332473	9,221	-0,135229	22,730000	57,620000
1,904023	-0,349649	10,723	-0,135236	22,730000	57,620000
1,913998	-0,257636	12,225	-0,135199	22,730000	57,620000
1,923954	-0,141086	13,732	-0,135153	22,740000	57,660000
1,934011	-0,141086	15,235	-0,135153	22,730000	57,630000
1,943954	-0,698070	16,741	-0,135375	22,730000	57,630000
1,954005	-0,365598	18,244	-0,135242	22,720000	57,625000
1,963947	-0,407310	19,751	-0,135259	22,730000	57,675000
1,974022	-0,357010	21,256	-0,135239	22,730000	57,630000
1,984040	-0,299348	22,758	-0,135216	22,730000	57,630000
1,993982	-0,382773	24,264	-0,135249	22,730000	57,630000
2,003996	-0,424486	25,767	-0,135266	22,730000	57,645000
2,013958	-0,523860	27,272	-0,135305	22,730000	57,645000
2,023948	-0,299348	28,775	-0,135216	22,730000	57,645000
2,033968	-0,365598	30,280	-0,135242	22,730000	57,630000
2,043972	-0,581521	31,787	-0,135328	22,730000	57,645000
2,053983	-0,556984	33,295	-0,135318	22,730000	57,620000
2,063943	-0,466198	34,797	-0,135282	22,730000	57,620000
2,074013	-0,440435	36,302	-0,135272	22,730000	57,675000
2,083955	-0,590109	37,803	-0,135332	22,730000	57,620000
2,093968	-0,581521	39,309	-0,135328	22,730000	57,620000
2,103965	-0,556984	40,814	-0,135318	22,730000	57,620000
2,113994	-0,490735	42,318	-0,135292	22,720000	57,655000
2,124012	-0,506684	43,821	-0,135298	22,720000	57,655000
2,133957	-0,506684	45,323	-0,135298	22,730000	57,620000
2,143984	-0,706658	46,825	-0,135378	22,730000	57,620000
2,153977	-0,398722	48,332	-0,135255	22,730000	57,620000
2,163961	-0,689483	49,837	-0,135371	22,730000	57,620000
2,173989	-0,640409	51,342	-0,135352	22,740000	57,645000
2,183959	-0,739783	52,843	-0,135391	22,740000	57,645000
2,193993	-0,898045	54,347	-0,135454	22,730000	57,630000
2,203973	-0,790083	55,849	-0,135411	22,730000	57,620000
2,213957	-0,607284	57,355	-0,135338	22,730000	57,620000
2,224007	-0,640409	58,855	-0,135352	22,730000	57,620000
2,233956	-0,623233	60,358	-0,135345	22,730000	57,620000
2,243981	-0,839157	61,863	-0,135431	22,740000	57,620000
2,254015	-0,781495	63,365	-0,135408	22,730000	57,605000
2,263949	-0,913994	64,867	-0,135460	22,730000	57,605000
2,273922	-0,947118	66,369	-0,135474	22,730000	57,605000
2,283940	-1,089432	67,873	-0,135530	22,730000	57,580000
2,293939	-1,089432	69,378	-0,135530	22,730000	57,620000
2,304013	-1,063668	70,882	-0,135520	22,730000	57,605000
2,313956	-0,980243	72,385	-0,135487	22,730000	57,605000
2,323963	-1,288179	73,888	-0,135609	22,730000	57,630000
2,334021	-1,404729	75,395	-0,135656	22,730000	57,605000
2,343938	-1,529866	76,896	-0,135706	22,730000	57,605000
2,353939	-1,636601	78,398	-0,135748	22,730000	57,605000
2,363915	-71,388436	79,903	-0,163509	22,730000	57,605000
2,374016	-72,318379	81,407	-0,163879	22,730000	57,605000
2,383973	-69,659823	82,913	-0,162821	22,730000	57,605000
2,393954	-67,390174	84,418	-0,161918	22,730000	57,605000
2,403945	-64,399144	85,922	-0,160728	22,730000	57,605000
2,413916	-60,384932	87,427	-0,159130	22,740000	57,580000
2,423955	-57,193929	88,931	-0,157860	22,730000	57,605000
2,433932	-53,155180	90,434	-0,156252	22,730000	57,605000
2,443947	-49,482029	91,936	-0,154791	22,730000	57,605000
2,453939	-46,481185	93,441	-0,153596	22,730000	57,590000
2,463937	-41,902628	94,943	-0,151774	22,730000	57,605000
2,473976	-38,520238	96,445	-0,150428	22,730000	57,605000
2,483950	-34,613988	97,949	-0,148873	22,730000	57,605000
2,493968	-30,766626	99,457	-0,147342	22,740000	57,630000
2,503986	-27,043175	100,964	-0,145860	22,720000	57,600000
2,514013	-23,236299	102,468	-0,144345	22,720000	57,600000
2,523948	-19,422061	103,970	-0,142827	22,730000	57,645000
2,534011	-14,942878	105,473	-0,141044	22,730000	57,645000
2,543963	-10,986328	106,975	-0,139469	22,730000	57,605000
2,553989	-6,432308	108,479	-0,137657	22,730000	57,605000
2,563944	-2,294186	109,981	-0,136010	22,730000	57,590000
2,573992	2,343259	111,485	-0,134164	22,740000	57,630000
2,583927	6,150135	112,986	-0,132649	22,720000	57,625000
2,593959	10,521357	114,489	-0,130909	22,720000	57,625000
2,603988	14,991952	115,992	-0,129130	22,720000	57,625000
2,613924	19,173014	117,496	-0,127466	22,730000	57,620000
2,623951	23,069449	119,003	-0,125915	22,730000	57,605000
2,633949	27,010050	120,505	-0,124347	22,730000	57,605000
2,633959	26,627277	122,005	-0,124499	22,730000	57,605000
2,633919	26,053117	123,509	-0,124728	22,730000	57,605000
2,633957	26,078881	125,013	-0,124717	22,730000	57,645000
2,633957	25,455647	126,513	-0,124965	22,730000	57,645000
2,633918	25,521897	128,017	-0,124939	22,730000	57,620000
2,633959	24,947737	129,522	-0,125167	22,730000	57,590000
2,630647	22,978663	131,023	-0,125951	22,720000	57,600000
2,620611	17,535186	132,527	-0,128118	22,720000	57,600000
2,610594	12,408233	134,030	-0,130158	22,730000	57,605000
2,600622	7,429727	135,535	-0,132140	22,740000	57,630000
2,590634	1,902825	137,036	-0,134339	22,730000	57,620000
2,580615	-2,675732	138,541	-0,136162	22,730000	57,620000
2,570599	-7,944998	140,042	-0,138259	22,730000	57,580000
2,560605	-12,714942	141,545	-0,140157	22,730000	57,590000
2,550578	-17,336438	143,047	-0,141997	22,730000	57,630000
2,540662	-21,864695	144,552	-0,143799	22,730000	57,630000
2,530624	-26,327929	146,056	-0,145575	22,730000	57,620000
2,520635	-30,691789	147,561	-0,147312	22,730000	57,590000
2,510619	-34,946461	149,064	-0,149005	22,730000	57,605000
2,500622	-39,799829	150,568	-0,150937	22,730000	57,605000
2,490598	-44,005428	152,071	-0,152611	22,730000	57,605000
2,480652	-48,451486	153,578	-0,154380	22,730000	57,590000
2,470638	-52,739282	155,082	-0,156087	22,730000	57,605000
2,460667	-57,335015	156,585	-0,157916	22,730000	57,605000
2,450645	-61,067054	158,089	-0,159401	22,730000	57,605000
2,440659	-65,346263	159,595	-0,161104	22,740000	57,620000
2,430627	-69,344525	161,098	-0,162696	22,740000	57,620000
2,420630	-73,216424	162,601	-0,164237	22,740000	57,620000
2,410641	-77,246584	164,104	-0,165841	22,730000	57,590000
2,400605	-81,136886	165,607	-0,167389	22,730000	57,605000
2,390643	-84,202752	167,112	-0,168609	22,730000	57,580000
2,380644	-88,175251	168,618	-0,170190	22,730000	57,580000
2,370576	-91,266881	170,121	-0,171421	22,730000	57,580000
2,360579	-94,508185	171,624	-0,172711	22,740000	57,590000
2,350677	-97,716365	173,126	-0,173988	22,730000	57,590000
2,340627	-101,215305	174,633	-0,175380	22,730000	57,590000
2,330646	-104,340060	176,133	-0,176624	22,720000	57,600000
2,320636	-107,198591	177,637	-0,177762	22,730000	57,605000
2,310608	-110,888917	179,141	-0,179230	22,730000	57,605000
2,300612	-113,432151	180,643	-0,180243	22,730000	57,605000
2,290592	-116,473481	182,145	-0,181453	22,730000	57,605000
2,280619	-118,975002	183,653	-0,182449	22,740000	57,605000
2,270627	-121,575897	185,156	-0,183484	22,730000	57,605000
2,260620	-123,803834	186,659	-0,184371	22,730000	57,605000
2,250604	-126,453802	188,165	-0,185425	22,730000	57,580000
2,240579	-128,274429	189,669	-0,186150	22,740000	57,605000
2,230647	-130,201790	191,173	-0,186917	22,730000	57,590000
2,220603	-131,648231	192,679	-0,187493	22,730000	57,590000
2,210639	-132,678775	194,183	-0,187903	22,730000	57,590000
2,200582	-133,817280	195,688	-0,188356	22,730000	57,580000
2,190604	-135,620731	197,192	-0,189074	22,720000	57,585000
2,180628	-136,609561	198,695	-0,189467	22,720000	57,585000
2,170659	-138,122252	200,202	-0,190069	22,730000	57,590000
2,160637	-139,634942	201,704	-0,190671	22,740000	57,645000
2,150615	-141,654317	203,208	-0,191475	22,740000	57,645000
2,140614	-142,834534	204,713	-0,191945	22,740000	57,645000
2,130652	-144,173014	206,222	-0,192478	22,730000	57,590000
2,120603	-143,757116	207,724	-0,192312	22,720000	57,530000
2,110666	-140,682661	209,227	-0,191088	22,730000	57,590000
2,100638	-120,428804	210,730	-0,183027	22,730000	57,590000
2,090625	-0,698070	212,237	-0,135375	22,730000	57,590000
2,080652	-0,715246	213,742	-0,135381	22,730000	57,605000
2,070633	-0,631821	215,244	-0,135348	22,730000	57,605000
2,060650	-0,698070	216,746	-0,135375	22,730000	57,605000
2,050624	-0,607284	218,248	-0,135338	22,730000	57,590000
2,040656	-0,664946	219,751	-0,135361	22,730000	57,590000
2,030665	-0,623233	221,255	-0,135345	22,730000	57,605000
2,020628	-0,515272	222,758	-0,135302	22,730000	57,605000
2,010636	-0,572933	224,262	-0,135325	22,740000	57,590000
2,000643	-0,482147	225,764	-0,135289	22,730000	57,605000
1,990611	-0,506684	227,271	-0,135298	22,730000	57,580000
1,980625	-0,572933	228,775	-0,135325	22,730000	57,580000
1,970639	-0,531221	230,276	-0,135308	22,730000	57,565000
1,960640	-0,257636	231,781	-0,135199	22,730000	57,550000
1,950651	-0,590109	233,283	-0,135332	22,730000	57,590000
1,940652	-0,689483	234,785	-0,135371	22,730000	57,590000
1,930628	-0,357010	236,288	-0,135239	22,740000	57,580000
1,920644	-0,739783	237,793	-0,135391	22,740000	57,580000
1,910638	-0,158262	239,298	-0,135160	22,730000	57,580000
1,900638	-0,332473	240,801	-0,135229	22,730000	57,580000
1,890653	-0,640409	242,303	-0,135352	22,730000	57,580000
1,880682	-0,598697	243,805	-0,135335	22,740000	57,565000
1,870639	-0,158262	245,307	-0,135160	22,740000	57,565000
1,860682	-0,307936	246,814	-0,135219	22,740000	57,565000
1,850629	-0,249048	248,316	-0,135196	22,730000	57,525000
1,840668	-0,257636	249,823	-0,135199	22,730000	57,565000
1,833989	-0,224511	250,825	-0,135186	22,730000	57,565000

File: EM-PDMS-120-10-120-1,2um-1
Quasi static measurement routine
Tip parameters (shape,radius, material...)
26.08.2022

Piezo position[nm]	MEMS displ.[nm]	Time[ms]	Cap [pf]	Temp [°C]	Rh [%]
eoh
1,834074	0,050300	0,160	-0,135050	22,730000	57,755000
1,849033	-0,249048	1,664	-0,135169	22,740000	57,730000
1,864047	-0,107962	3,168	-0,135113	22,730000	57,770000
1,879072	-0,008588	4,672	-0,135074	22,730000	57,770000
1,894036	-0,083425	6,175	-0,135104	22,730000	57,770000
1,909017	0,033125	7,678	-0,135057	22,730000	57,795000
1,924018	-0,149674	9,182	-0,135130	22,730000	57,770000
1,938984	0,008588	10,687	-0,135067	22,730000	57,770000
1,954040	0,008588	12,194	-0,135067	22,730000	57,770000
1,969046	-0,215923	13,700	-0,135156	22,730000	57,755000
1,984047	-0,290760	15,205	-0,135186	22,730000	57,780000
1,999053	-0,307936	16,707	-0,135193	22,730000	57,780000
2,014096	-0,415898	18,208	-0,135236	22,730000	57,770000
2,029102	-0,282173	19,713	-0,135183	22,730000	57,770000
2,044028	-0,423259	21,215	-0,135239	22,710000	57,750000
2,059013	-0,249048	22,719	-0,135169	22,710000	57,750000
2,074022	-0,374185	24,225	-0,135219	22,730000	57,740000
2,089065	-0,341061	25,728	-0,135206	22,720000	57,765000
2,104130	-0,282173	27,229	-0,135183	22,720000	57,765000
2,119102	-0,689483	28,732	-0,135345	22,720000	57,765000
2,134066	-0,456383	30,236	-0,135252	22,720000	57,750000
2,149004	-0,664946	31,743	-0,135335	22,720000	57,750000
2,164003	-0,523860	33,248	-0,135279	22,730000	57,755000
2,178994	-0,548396	34,749	-0,135289	22,730000	57,755000
2,194081	-0,764320	36,251	-0,135375	22,740000	57,715000
2,209015	-0,490735	37,753	-0,135266	22,720000	57,735000
2,224049	-0,647770	39,255	-0,135328	22,720000	57,735000
2,238977	-0,523860	40,756	-0,135279	22,720000	57,735000
2,253957	-0,748371	42,257	-0,135368	22,730000	57,770000
2,269021	-0,680895	43,757	-0,135341	22,710000	57,725000
2,284017	-0,772908	45,260	-0,135378	22,740000	57,740000
2,299059	-0,988831	46,762	-0,135464	22,740000	57,740000
2,314103	-1,262416	48,265	-0,135573	22,740000	57,740000
2,329041	-1,296767	49,766	-0,135586	22,720000	57,750000
2,344039	-72,311018	51,271	-0,163850	22,730000	57,715000
2,359031	-70,025420	52,772	-0,162940	22,730000	57,715000
2,374017	-65,828410	54,278	-0,161270	22,730000	57,715000
2,389032	-60,426645	55,786	-0,159120	22,730000	57,730000
2,404080	-54,716944	57,291	-0,156848	22,720000	57,765000
2,419035	-49,033007	58,793	-0,154585	22,720000	57,765000
2,434019	-43,671728	60,300	-0,152452	22,720000	57,765000
2,449070	-38,236838	61,805	-0,150289	22,730000	57,730000
2,464002	-32,195892	63,308	-0,147884	22,730000	57,730000
2,479061	-26,635865	64,810	-0,145671	22,730000	57,730000
2,494048	-20,426841	66,314	-0,143200	22,730000	57,730000
2,509050	-14,469319	67,817	-0,140829	22,720000	57,725000
2,523987	-7,911874	69,318	-0,138219	22,730000	57,755000
2,539021	-1,387553	70,821	-0,135623	22,730000	57,755000
2,554025	5,368640	72,328	-0,132934	22,730000	57,755000
2,569070	12,532143	73,832	-0,130083	22,730000	57,700000
2,584013	18,649154	75,334	-0,127648	22,730000	57,740000
2,598937	25,638446	76,835	-0,124866	22,730000	57,755000
2,613993	31,456109	78,336	-0,122551	22,730000	57,755000
2,629062	38,187765	79,840	-0,119872	22,730000	57,740000
2,643965	32,029042	81,341	-0,122323	22,730000	57,740000
2,659069	20,336055	82,845	-0,126977	22,730000	57,730000
2,673976	25,854370	84,349	-0,124780	22,730000	57,730000
2,689032	31,430345	85,853	-0,122561	22,730000	57,730000
2,704002	36,849285	87,357	-0,120404	22,730000	57,700000
2,719021	42,501325	88,864	-0,118155	22,730000	57,740000
2,734002	48,907869	90,369	-0,115605	22,730000	57,740000
2,749011	54,850669	91,874	-0,113240	22,730000	57,770000
2,763987	61,291565	93,377	-0,110676	22,730000	57,770000
2,779011	69,252513	94,881	-0,107508	22,730000	57,740000
2,793992	77,538572	96,382	-0,104210	22,730000	57,740000
2,809008	85,699494	97,885	-0,100962	22,730000	57,740000
2,823991	93,669029	99,389	-0,097790	22,730000	57,715000
2,839007	102,129299	100,893	-0,094423	22,730000	57,740000
2,854000	110,830029	102,397	-0,090960	22,730000	57,740000
2,868975	119,241226	103,902	-0,087612	22,730000	57,730000
2,884006	127,468397	105,408	-0,084338	22,730000	57,700000
2,898968	136,485651	106,911	-0,080749	22,730000	57,700000
2,914009	144,836732	108,412	-0,077425	22,730000	57,700000
2,929029	153,173092	109,915	-0,074107	22,730000	57,715000
2,943974	161,267765	111,421	-0,070886	22,730000	57,780000
2,958998	170,758578	112,926	-0,067108	22,720000	57,695000
2,973988	179,177136	114,429	-0,063758	22,720000	57,695000
2,988961	187,679118	115,930	-0,060374	22,710000	57,750000
3,003978	196,230174	117,432	-0,056971	22,720000	57,735000
3,019046	205,762700	118,938	-0,053177	22,720000	57,735000
3,034017	214,713705	120,445	-0,049614	22,720000	57,735000
3,033966	213,573973	121,947	-0,050068	22,730000	57,730000
3,033983	213,665986	123,449	-0,050031	22,730000	57,730000
3,033977	212,344682	124,955	-0,050557	22,740000	57,700000
3,033968	212,012209	126,458	-0,050689	22,740000	57,700000
3,034057	211,629436	127,960	-0,050842	22,740000	57,715000
3,033986	211,455225	129,466	-0,050911	22,740000	57,715000
3,028987	207,898624	130,969	-0,052327	22,730000	57,730000
3,014018	197,784577	132,473	-0,056352	22,730000	57,730000
2,999041	188,526863	133,980	-0,060037	22,730000	57,730000
2,983985	178,353928	135,482	-0,064085	22,730000	57,730000
2,969002	169,162463	136,985	-0,067744	22,720000	57,710000
2,954006	159,506026	138,489	-0,071587	22,720000	57,710000
2,938979	149,616491	139,990	-0,075523	22,730000	57,700000
2,923958	140,474099	141,497	-0,079162	22,730000	57,740000
2,909022	131,548858	143,000	-0,082714	22,720000	57,750000
2,894006	122,223667	144,506	-0,086425	22,720000	57,750000
2,879028	112,218809	146,008	-0,090407	22,720000	57,725000
2,864024	103,175791	147,513	-0,094006	22,720000	57,725000
2,848988	94,492237	149,016	-0,097462	22,740000	57,715000
2,833992	85,541232	150,520	-0,101025	22,740000	57,715000
2,818989	76,889575	152,023	-0,104468	22,730000	57,730000
2,803962	67,640448	153,526	-0,108149	22,730000	57,700000
2,789053	58,856293	155,029	-0,111646	22,730000	57,700000
2,774016	50,312598	156,535	-0,115046	22,730000	57,700000
2,758995	41,761542	158,038	-0,118449	22,720000	57,680000
2,744010	32,013093	159,540	-0,122329	22,720000	57,680000
2,729059	23,544235	161,045	-0,125700	22,720000	57,695000
2,714050	14,485268	162,549	-0,129305	22,720000	57,695000
2,699064	6,540270	164,050	-0,132467	22,730000	57,715000
2,684030	-1,686901	165,555	-0,135742	22,730000	57,715000
2,669019	-10,047798	167,062	-0,139069	22,730000	57,685000
2,654078	-18,814777	168,566	-0,142559	22,730000	57,685000
2,639081	-25,904670	170,071	-0,145380	22,730000	57,685000
2,624049	-33,715943	171,576	-0,148489	22,720000	57,680000
2,609023	-41,694066	173,078	-0,151665	22,730000	57,715000
2,594066	-49,073492	174,580	-0,154602	22,730000	57,715000
2,579021	-56,354772	176,084	-0,157500	22,730000	57,715000
2,564048	-63,758735	177,587	-0,160446	22,720000	57,670000
2,549027	-69,884334	179,087	-0,162884	22,730000	57,700000
2,534083	-75,984169	180,588	-0,165312	22,730000	57,700000
2,519058	-81,626394	182,095	-0,167558	22,730000	57,715000
2,504070	-87,917615	183,599	-0,170062	22,730000	57,715000
2,489103	-93,801527	185,106	-0,172403	22,710000	57,680000
2,474045	-99,968838	186,608	-0,174858	22,710000	57,680000
2,459106	-106,026961	188,114	-0,177269	22,740000	57,715000
2,444082	-113,215001	189,618	-0,180130	22,740000	57,715000
2,429055	-120,445980	191,123	-0,183008	22,730000	57,730000
2,413987	-127,409508	192,629	-0,185779	22,730000	57,730000
2,399067	-134,299427	194,132	-0,188521	22,730000	57,715000
2,384087	-141,779454	195,637	-0,191499	22,720000	57,695000
2,369049	-148,260835	197,140	-0,194078	22,730000	57,700000
2,354058	-155,175291	198,642	-0,196830	22,730000	57,700000
2,339021	-162,679854	200,146	-0,199817	22,730000	57,700000
2,324053	-168,638603	201,649	-0,202188	22,720000	57,670000
2,309079	-175,918656	203,151	-0,205086	22,730000	57,685000
2,294006	-181,952242	204,658	-0,207487	22,730000	57,685000
2,279093	-188,575936	206,162	-0,210124	22,730000	57,730000
2,264089	-193,836615	207,669	-0,212217	22,730000	57,715000
2,249105	-197,311018	209,172	-0,213600	22,730000	57,685000
2,234027	-141,379505	210,675	-0,191339	22,730000	57,685000
2,219057	-136,102878	212,177	-0,189239	22,730000	57,685000
2,203985	-135,388858	213,680	-0,188955	22,730000	57,700000
2,189043	-136,003504	215,184	-0,189200	22,730000	57,685000
2,174066	-138,662060	216,689	-0,190258	22,730000	57,685000
2,159075	-140,299888	218,192	-0,190910	22,730000	57,685000
2,144039	-141,986789	219,693	-0,191581	22,730000	57,730000
2,129069	-143,988988	221,198	-0,192378	22,730000	57,730000
2,114040	-145,078419	222,700	-0,192812	22,730000	57,730000
2,099025	-145,285755	224,202	-0,192894	22,740000	57,685000
2,084028	-136,675811	225,707	-0,189467	22,730000	57,685000
2,069007	-0,631821	227,207	-0,135322	22,720000	57,670000
2,054025	-0,631821	228,709	-0,135322	22,720000	57,670000
2,039039	-0,748371	230,214	-0,135368	22,730000	57,700000
2,024045	-0,947118	231,718	-0,135447	22,720000	57,735000
2,009058	-0,731195	233,222	-0,135361	22,720000	57,640000
1,994052	-0,365598	234,728	-0,135216	22,720000	57,640000
1,979018	-0,565572	236,235	-0,135295	22,730000	57,660000
1,964061	-0,282173	237,738	-0,135183	22,730000	57,660000
1,949046	-0,440435	239,243	-0,135246	22,710000	57,710000
1,934045	-0,473559	240,747	-0,135259	22,710000	57,710000
1,919033	-0,539808	242,252	-0,135285	22,710000	57,710000
1,904068	-0,215923	243,755	-0,135156	22,730000	57,675000
1,889042	-0,764320	245,259	-0,135375	22,730000	57,675000
1,874056	-0,415898	246,760	-0,135236	22,730000	57,675000
1,859080	-0,240460	248,263	-0,135166	22,730000	57,685000
1,844048	-0,191387	249,766	-0,135146	22,730000	57,685000
1,834073	-0,374185	250,769	-0,135219	22,730000	57,685000