Folder: Nanoindentation_Analysis/Nanoindentation Datenauswertung/data/PDMS (part 9)

File: EM-PDMS-75-10-75-1,5um-1
Quasi static measurement routine
Tip parameters (shape,radius, material...)
24.08.2022

Piezo position[nm]	MEMS displ.[nm]	Time[ms]	Cap [pf]	Temp [°C]	Rh [%]
eoh
2,551863	0,107962	0,214	-0,135732	22,700000	51,965000
2,571909	-0,141086	1,218	-0,135831	22,690000	51,935000
2,591870	0,133725	2,222	-0,135722	22,690000	51,935000
2,611886	-0,125137	3,222	-0,135825	22,700000	51,925000
2,631893	0,025764	4,223	-0,135765	22,700000	51,925000
2,651888	-0,190160	5,224	-0,135851	22,700000	51,925000
2,671827	-0,033125	6,225	-0,135788	22,700000	51,925000
2,691850	-0,341061	7,228	-0,135911	22,700000	51,935000
2,711916	0,008588	8,233	-0,135771	22,700000	51,935000
2,731846	-0,273585	9,234	-0,135884	22,700000	51,935000
2,751846	-0,099374	10,238	-0,135814	22,700000	51,935000
2,771958	-0,390134	11,242	-0,135930	22,690000	51,935000
2,791867	-0,332473	12,384	-0,135907	22,690000	51,935000
2,811837	-0,531221	13,385	-0,135986	22,690000	51,935000
2,831856	-0,231872	14,387	-0,135867	22,690000	51,910000
2,851834	-0,556984	15,389	-0,135997	22,690000	51,910000
2,871809	-0,548396	16,393	-0,135993	22,700000	51,935000
2,891877	-0,531221	17,394	-0,135986	22,700000	51,935000
2,911806	-0,680895	18,398	-0,136046	22,690000	51,910000
2,931802	-0,830569	19,402	-0,136105	22,690000	51,910000
2,951822	-1,112741	20,406	-0,136218	22,690000	51,910000
2,971847	-0,722607	21,410	-0,136063	22,690000	51,910000
2,991893	-1,079617	22,413	-0,136205	22,700000	51,975000
3,011819	-1,437853	23,416	-0,136347	22,700000	51,975000
3,031832	-1,520051	24,417	-0,136380	22,690000	51,950000
3,051792	-1,878288	25,420	-0,136522	22,690000	51,950000
3,071816	-69,510148	26,421	-0,163440	22,690000	51,950000
3,091866	-62,030121	27,421	-0,160463	22,690000	51,950000
3,111853	-55,215040	28,422	-0,157750	22,690000	51,950000
3,131796	-46,738821	29,424	-0,154377	22,690000	51,950000
3,151754	-39,791241	30,431	-0,151612	22,690000	51,950000
3,171804	-31,115048	31,436	-0,148159	22,690000	51,950000
3,191813	-24,050919	32,440	-0,145347	22,700000	51,925000
3,211740	-14,534342	33,443	-0,141560	22,700000	51,925000
3,231799	-6,615107	34,444	-0,138408	22,690000	51,910000
3,251764	2,576358	35,449	-0,134750	22,690000	51,910000
3,271727	11,369101	36,455	-0,131250	22,700000	51,925000
3,291786	20,626816	37,457	-0,127565	22,700000	51,925000
3,311764	30,650077	38,462	-0,123576	22,690000	51,950000
3,331796	39,733580	39,464	-0,119961	22,690000	51,950000
3,351789	47,836840	40,467	-0,116736	22,690000	51,950000
3,371763	57,808574	41,469	-0,112767	22,690000	51,950000
3,391773	35,719368	42,471	-0,121559	22,700000	51,935000
3,411794	46,830834	43,474	-0,117136	22,700000	51,935000
3,431723	55,665289	44,481	-0,113620	22,690000	51,935000
3,451780	62,155259	45,484	-0,111037	22,690000	51,935000
3,471719	68,637867	46,486	-0,108457	22,690000	51,935000
3,491775	77,505447	47,488	-0,104928	22,690000	51,935000
3,511742	88,881910	48,491	-0,100400	22,690000	51,885000
3,531737	98,555522	49,493	-0,096550	22,690000	51,885000
3,551680	108,404572	50,495	-0,092630	22,700000	51,895000
3,571772	119,955245	51,498	-0,088033	22,700000	51,895000
3,591753	131,216385	52,501	-0,083551	22,700000	51,950000
3,611723	142,643147	53,505	-0,079003	22,700000	51,950000
3,631742	154,078498	54,508	-0,074452	22,700000	51,950000
3,651703	166,728417	55,512	-0,069417	22,700000	51,950000
3,671729	177,697570	56,513	-0,065051	22,690000	51,965000
3,691696	189,374607	57,514	-0,060404	22,690000	51,965000
3,711733	201,292105	58,518	-0,055661	22,690000	51,965000
3,731737	214,762779	59,520	-0,050299	22,690000	51,965000
3,751725	227,113350	60,521	-0,045384	22,690000	51,935000
3,771734	237,525518	61,522	-0,041240	22,690000	51,935000
3,791677	250,415898	62,526	-0,036109	22,710000	51,955000
3,811681	261,236603	63,531	-0,031803	22,710000	51,955000
3,831725	273,427685	64,537	-0,026951	22,690000	51,910000
3,851677	287,016135	65,542	-0,021542	22,690000	51,910000
3,871716	299,273467	66,546	-0,016664	22,690000	51,910000
3,891686	310,667105	67,550	-0,012129	22,690000	51,910000
3,911692	322,668028	68,552	-0,007353	22,700000	51,910000
3,931716	336,314139	69,554	-0,001922	22,700000	51,910000
3,951677	348,689247	70,556	0,003003	22,700000	51,925000
3,971680	360,904866	71,562	0,007865	22,700000	51,925000
3,991646	371,850709	72,565	0,012222	22,700000	51,925000
4,011662	384,175516	73,567	0,017127	22,700000	51,925000
4,031630	397,505104	74,571	0,022432	22,690000	51,935000
4,051709	409,970998	75,573	0,027394	22,690000	51,935000
4,051661	405,881949	76,577	0,025766	22,700000	51,925000
4,051706	404,893118	77,580	0,025373	22,700000	51,925000
4,051649	404,154562	78,582	0,025079	22,690000	51,935000
4,051719	403,705539	79,584	0,024900	22,690000	51,935000
4,051677	403,073718	80,584	0,024648	22,680000	51,910000
4,051620	402,915456	81,586	0,024585	22,680000	51,910000
4,051622	402,640645	82,588	0,024476	22,700000	51,965000
4,051751	402,109424	83,591	0,024265	22,700000	51,965000
4,051656	401,794127	84,595	0,024139	22,690000	51,925000
4,051678	401,719290	85,596	0,024109	22,690000	51,925000
4,031643	388,853447	86,598	0,018989	22,690000	51,925000
4,011632	374,260217	87,601	0,013181	22,690000	51,925000
3,991685	360,455844	88,601	0,007687	22,690000	51,925000
3,971676	347,375304	89,605	0,002480	22,690000	51,925000
3,951694	335,267647	90,610	-0,002338	22,690000	51,965000
3,931721	321,820283	91,612	-0,007690	22,690000	51,965000
3,911668	308,872242	92,616	-0,012844	22,690000	51,925000
3,891688	296,216188	93,618	-0,017881	22,690000	51,925000
3,871704	282,121054	94,621	-0,023491	22,690000	51,910000
3,851694	270,544618	95,624	-0,028098	22,690000	51,910000
3,831622	257,662826	96,626	-0,033225	22,690000	51,935000
3,811645	245,313481	97,631	-0,038140	22,690000	51,935000
3,791684	231,368022	98,632	-0,043690	22,700000	51,895000
3,771700	219,998920	99,637	-0,048215	22,700000	51,895000
3,751802	206,726994	100,641	-0,053498	22,700000	51,895000
3,731682	194,477024	101,644	-0,058373	22,700000	51,895000
3,711753	182,526402	102,650	-0,063129	22,700000	51,950000
3,691761	170,342680	103,653	-0,067979	22,700000	51,950000
3,671731	156,438933	104,655	-0,073512	22,700000	51,950000
3,651702	144,106764	105,657	-0,078420	22,700000	51,950000
3,631752	133,086085	106,659	-0,082807	22,690000	51,950000
3,611751	121,359974	107,663	-0,087474	22,690000	51,950000
3,591750	107,731038	108,667	-0,092898	22,690000	51,935000
3,571665	96,304275	109,671	-0,097446	22,690000	51,935000
3,551760	85,957129	110,673	-0,101564	22,690000	51,950000
3,531775	74,911913	111,674	-0,105960	22,690000	51,950000
3,511751	64,191809	112,676	-0,110227	22,690000	51,950000
3,491737	52,980969	113,681	-0,114688	22,690000	51,950000
3,471724	41,570155	114,682	-0,119230	22,700000	51,935000
3,451780	29,943418	115,682	-0,123857	22,700000	51,935000
3,431762	17,353614	116,686	-0,128868	22,690000	51,910000
3,411806	6,507145	117,687	-0,133185	22,690000	51,910000
3,391804	-4,155298	118,691	-0,137429	22,700000	51,965000
3,371794	-15,083965	119,695	-0,141778	22,700000	51,965000
3,351780	-27,250510	120,697	-0,146621	22,690000	51,965000
3,331758	-36,508225	121,700	-0,150305	22,690000	51,965000
3,311761	-47,785313	122,703	-0,154793	22,690000	51,950000
3,291817	-57,384088	123,708	-0,158614	22,690000	51,950000
3,271728	-67,374225	124,714	-0,162590	22,690000	51,950000
3,251811	-74,462891	125,716	-0,165411	22,690000	51,950000
3,231797	-83,255634	126,718	-0,168911	22,700000	51,965000
3,211808	-88,432887	127,719	-0,170971	22,700000	51,965000
3,191832	-96,012288	128,724	-0,173988	22,690000	51,950000
3,171841	-103,791663	129,726	-0,177084	22,690000	51,950000
3,151852	-113,414975	130,728	-0,180914	22,690000	51,925000
3,131848	-124,709240	131,732	-0,185409	22,690000	51,925000
3,111854	-133,493395	132,733	-0,188905	22,690000	51,925000
3,091802	-144,314100	133,734	-0,193212	22,690000	51,925000
3,071818	-153,904287	134,740	-0,197029	22,690000	51,925000
3,051855	-163,985209	135,743	-0,201041	22,690000	51,925000
3,031849	-172,628278	136,745	-0,204481	22,700000	51,910000
3,011857	-181,711782	137,750	-0,208096	22,700000	51,910000
2,991810	-190,836997	138,754	-0,211728	22,690000	51,925000
2,971859	-200,717945	139,755	-0,215661	22,690000	51,925000
2,951819	-208,297346	140,758	-0,218677	22,700000	51,925000
2,931857	-217,663022	141,761	-0,222405	22,700000	51,925000
2,911935	-222,690601	142,763	-0,224406	22,700000	51,895000
2,891877	-156,322383	143,765	-0,197991	22,700000	51,895000
2,871818	-151,070293	144,769	-0,195901	22,700000	51,895000
2,851931	-152,290996	145,773	-0,196387	22,700000	51,895000
2,831907	-153,629476	146,776	-0,196919	22,700000	51,910000
2,811879	-154,020837	147,783	-0,197075	22,700000	51,910000
2,791857	-139,617767	148,783	-0,191343	22,690000	51,925000
2,771915	-0,656358	149,789	-0,136036	22,690000	51,925000
2,751872	-0,581521	150,793	-0,136006	22,690000	51,935000
2,731868	-0,515272	151,796	-0,135980	22,690000	51,935000
2,711805	-0,781495	152,798	-0,136086	22,690000	51,935000
2,691916	-0,515272	153,800	-0,135980	22,690000	51,935000
2,671812	-0,548396	154,801	-0,135993	22,700000	51,925000
2,651868	-0,498096	155,803	-0,135973	22,700000	51,925000
2,631829	-0,747144	156,804	-0,136072	22,700000	51,925000
2,611880	-0,423259	157,808	-0,135943	22,700000	51,925000
2,591915	-0,398722	158,812	-0,135934	22,690000	51,885000
2,571854	-0,182799	159,815	-0,135848	22,690000	51,885000
2,551887	-0,306709	160,817	-0,135897	22,690000	51,925000

File: EM-PDMS-100-10-100-2um-1
Quasi static measurement routine
Tip parameters (shape,radius, material...)
24.08.2022

Piezo position[nm]	MEMS displ.[nm]	Time[ms]	Cap [pf]	Temp [°C]	Rh [%]
eoh
2,551863	-0,050300	0,197	-0,136129	22,680000	51,870000
2,575857	-0,099374	1,397	-0,136148	22,680000	51,870000
2,599929	0,074837	2,599	-0,136079	22,680000	51,870000
2,623870	-0,307936	3,804	-0,136231	22,680000	51,870000
2,647811	0,008588	5,004	-0,136105	22,680000	51,870000
2,671855	-0,290760	6,206	-0,136225	22,680000	51,870000
2,695868	-0,664946	7,411	-0,136374	22,680000	51,870000
2,719883	-0,572933	8,612	-0,136337	22,690000	51,845000
2,743840	-0,607284	9,813	-0,136351	22,690000	51,845000
2,767878	-0,764320	11,016	-0,136413	22,690000	51,845000
2,791811	-0,947118	12,221	-0,136486	22,690000	51,870000
2,815869	-0,531221	13,426	-0,136320	22,690000	51,870000
2,839860	-1,006007	14,631	-0,136509	22,690000	51,870000
2,863869	-1,072256	15,836	-0,136536	22,690000	51,870000
2,887885	-1,213342	17,042	-0,136592	22,690000	51,870000
2,911872	-1,504103	18,244	-0,136708	22,680000	51,830000
2,935818	-1,711438	19,447	-0,136790	22,680000	51,830000
2,959866	-2,102799	20,649	-0,136946	22,680000	51,830000
2,983806	-2,526058	21,853	-0,137114	22,680000	51,830000
3,007801	-3,091630	23,058	-0,137339	22,680000	51,860000
3,031825	-4,279209	24,260	-0,137812	22,700000	51,860000
3,055802	-72,219005	25,462	-0,164852	22,700000	51,860000
3,079815	-63,326888	26,667	-0,161313	22,700000	51,860000
3,103795	-55,124254	27,873	-0,158048	22,700000	51,860000
3,127808	-46,381811	29,075	-0,154569	22,690000	51,830000
3,151840	-35,860455	30,277	-0,150381	22,690000	51,830000
3,175805	-26,460427	31,478	-0,146640	22,690000	51,830000
3,199847	-17,302087	32,678	-0,142995	22,690000	51,860000
3,223829	-6,166084	33,881	-0,138563	22,690000	51,860000
3,247771	3,457228	35,084	-0,134733	22,680000	51,860000
3,271772	14,319645	36,288	-0,130410	22,680000	51,845000
3,295806	26,851788	37,491	-0,125422	22,680000	51,845000
3,319833	36,915535	38,695	-0,121417	22,680000	51,845000
3,343788	47,271268	39,898	-0,117295	22,680000	51,845000
3,367755	44,071677	41,099	-0,118568	22,680000	51,860000
3,391809	38,677273	42,304	-0,120715	22,680000	51,870000
3,415755	51,625314	43,506	-0,115562	22,680000	51,870000
3,439798	61,939335	44,710	-0,111457	22,670000	51,865000
3,463813	68,961752	45,916	-0,108662	22,670000	51,865000
3,487762	80,022917	47,121	-0,104260	22,690000	51,830000
3,511729	90,161501	48,325	-0,100225	22,680000	51,845000
3,535721	102,801606	49,530	-0,095194	22,680000	51,845000
3,559653	116,182720	50,733	-0,089868	22,680000	51,845000
3,583686	129,437471	51,938	-0,084593	22,680000	51,845000
3,607712	144,820784	53,142	-0,078470	22,680000	51,830000
3,631712	156,795943	54,343	-0,073704	22,680000	51,885000
3,655663	171,098412	55,547	-0,068012	22,680000	51,885000
3,679695	186,756537	56,752	-0,061780	22,680000	51,860000
3,703762	199,405229	57,956	-0,056746	22,680000	51,860000
3,727712	214,978702	59,159	-0,050547	22,700000	51,845000
3,751667	229,373184	60,363	-0,044818	22,690000	51,885000
3,775740	243,525980	61,566	-0,039186	22,690000	51,885000
3,799632	257,737663	62,769	-0,033529	22,680000	51,845000
3,823675	272,313717	63,974	-0,027728	22,680000	51,845000
3,847709	288,254014	65,178	-0,021384	22,680000	51,845000
3,871687	302,041212	66,382	-0,015896	22,680000	51,860000
3,895620	317,955746	67,586	-0,009562	22,680000	51,860000
3,919691	332,839736	68,788	-0,003639	22,690000	51,885000
3,943698	347,732314	69,992	0,002289	22,690000	51,885000
3,967678	361,461850	71,193	0,007753	22,680000	51,895000
3,991675	375,689483	72,398	0,013416	22,680000	51,845000
4,015669	391,746329	73,599	0,019806	22,680000	51,845000
4,039755	402,932632	74,805	0,024258	22,680000	51,885000
4,063699	417,017951	76,006	0,029864	22,680000	51,885000
4,087696	432,018491	77,208	0,035834	22,680000	51,885000
4,111593	446,454686	78,412	0,041580	22,670000	51,855000
4,135678	461,787698	79,613	0,047683	22,670000	51,855000
4,159657	476,215305	80,817	0,053425	22,670000	51,855000
4,183623	492,537149	82,022	0,059921	22,670000	51,855000
4,207615	505,975925	83,225	0,065270	22,690000	51,845000
4,231590	521,124912	84,429	0,071299	22,690000	51,860000
4,255649	535,909528	85,633	0,077183	22,690000	51,860000
4,279681	552,382273	86,839	0,083739	22,680000	51,845000
4,303615	566,277432	88,048	0,089270	22,690000	51,870000
4,327635	581,103761	89,253	0,095170	22,690000	51,870000
4,351625	595,804952	90,455	0,101021	22,680000	51,845000
4,375582	612,957365	91,656	0,107848	22,680000	51,845000
4,399612	627,501521	92,858	0,113637	22,680000	51,845000
4,423633	641,945077	94,063	0,119385	22,690000	51,845000
4,447569	656,879368	95,264	0,125329	22,690000	51,845000
4,471602	671,414936	96,472	0,131114	22,680000	51,870000
4,495631	686,473137	97,681	0,137107	22,680000	51,870000
4,519594	701,424603	98,888	0,143058	22,690000	51,870000
4,543618	716,865578	100,095	0,149204	22,690000	51,870000
4,551578	721,826908	101,300	0,151178	22,690000	51,870000
4,551611	720,979163	102,505	0,150841	22,690000	51,885000
4,551569	720,679815	103,708	0,150722	22,690000	51,885000
4,551626	719,749872	104,909	0,150352	22,690000	51,870000
4,551634	719,516773	106,113	0,150259	22,680000	51,885000
4,551536	718,992914	107,315	0,150050	22,680000	51,885000
4,551638	718,585604	108,519	0,149888	22,680000	51,870000
4,551587	718,195470	109,723	0,149733	22,680000	51,870000
4,543594	712,793705	110,927	0,147583	22,680000	51,870000
4,519586	696,496398	112,134	0,141097	22,680000	51,845000
4,495601	680,091129	113,336	0,134567	22,680000	51,845000
4,471610	661,857873	114,538	0,127311	22,690000	51,860000
4,447567	647,022957	115,740	0,121406	22,690000	51,860000
4,423555	631,024998	116,943	0,115039	22,690000	51,860000
4,399591	615,126413	118,149	0,108711	22,680000	51,860000
4,375600	598,987368	119,353	0,102288	22,680000	51,860000
4,351618	581,734355	120,553	0,095421	22,690000	51,830000
4,327590	566,035745	121,756	0,089173	22,690000	51,830000
4,303641	550,777569	122,959	0,083101	22,680000	51,860000
4,279640	535,536570	124,162	0,077035	22,680000	51,885000
4,255640	520,585103	125,363	0,071084	22,680000	51,885000
4,231617	505,493777	126,564	0,065078	22,680000	51,870000
4,207620	488,648074	127,768	0,058373	22,680000	51,870000
4,183649	474,495279	128,972	0,052740	22,680000	51,870000
4,159583	457,773487	130,174	0,046085	22,700000	51,870000
4,135659	443,255094	131,380	0,040307	22,700000	51,870000
4,111670	426,600777	132,585	0,033678	22,690000	51,870000
4,087623	413,071215	133,789	0,028293	22,690000	51,870000
4,063701	396,108963	134,993	0,021542	22,690000	51,870000
4,039677	382,986711	136,195	0,016320	22,680000	51,830000
4,015659	367,545736	137,398	0,010174	22,680000	51,830000
3,991668	350,940493	138,602	0,003565	22,680000	51,830000
3,967678	336,073679	139,806	-0,002352	22,680000	51,830000
3,943735	321,322187	141,008	-0,008223	22,680000	51,845000
3,919668	307,550938	142,214	-0,013704	22,680000	51,845000
3,895707	291,278168	143,415	-0,020180	22,680000	51,845000
3,871696	276,087469	144,618	-0,026226	22,690000	51,845000
3,847724	263,122252	145,818	-0,031386	22,690000	51,845000
3,823711	248,029699	147,018	-0,037393	22,690000	51,845000
3,799722	232,156878	148,220	-0,043710	22,680000	51,845000
3,775729	218,145169	149,422	-0,049287	22,680000	51,845000
3,751734	204,100336	150,625	-0,054877	22,680000	51,860000
3,727745	188,326888	151,828	-0,061155	22,680000	51,860000
3,703727	173,841620	153,031	-0,066920	22,680000	51,845000
3,679708	159,730537	154,232	-0,072536	22,680000	51,845000
3,655752	145,028119	155,436	-0,078388	22,680000	51,845000
3,631735	130,393177	156,638	-0,084212	22,680000	51,845000
3,607742	114,544892	157,844	-0,090520	22,680000	51,845000
3,583816	100,309899	159,048	-0,096186	22,690000	51,845000
3,559793	87,801066	160,253	-0,101164	22,680000	51,870000
3,535777	73,299849	161,457	-0,106936	22,680000	51,870000
3,511722	60,875667	162,663	-0,111880	22,690000	51,870000
3,487787	47,220968	163,868	-0,117315	22,690000	51,870000
3,463727	34,763662	165,073	-0,122273	22,690000	51,870000
3,439756	21,557985	166,278	-0,127529	22,680000	51,860000
3,415710	6,432308	167,483	-0,133549	22,680000	51,860000
3,391742	-6,972116	168,686	-0,138884	22,680000	51,860000
3,367781	-18,490892	169,889	-0,143468	22,680000	51,860000
3,343755	-31,738281	171,091	-0,148741	22,680000	51,830000
3,319764	-44,561185	172,296	-0,153844	22,690000	51,845000
3,295776	-56,454146	173,499	-0,158578	22,690000	51,845000
3,271810	-68,246506	174,701	-0,163271	22,690000	51,845000
3,247811	-79,474521	175,904	-0,167740	22,690000	51,845000
3,223851	-88,690523	177,106	-0,171408	22,680000	51,870000
3,199815	-95,164543	178,307	-0,173984	22,680000	51,845000
3,175806	-102,470360	179,512	-0,176892	22,680000	51,845000
3,151834	-113,855410	180,719	-0,181423	22,680000	51,870000
3,127796	-125,515272	181,924	-0,186064	22,680000	51,870000
3,103791	-136,891734	183,128	-0,190592	22,680000	51,860000
3,079814	-149,648388	184,332	-0,195669	22,680000	51,870000
3,055829	-160,037247	185,534	-0,199804	22,680000	51,870000
3,031822	-172,379230	186,736	-0,204716	22,680000	51,870000
3,007854	-183,414632	187,940	-0,209108	22,680000	51,870000
2,983849	-194,028001	189,144	-0,213332	22,690000	51,860000
2,959821	-204,565307	190,345	-0,217526	22,680000	51,845000
2,935860	-216,259520	191,547	-0,222180	22,680000	51,845000
2,911905	-224,594653	192,751	-0,225498	22,680000	51,860000
2,887844	-159,621349	193,953	-0,199638	22,680000	51,860000
2,863790	-152,408772	195,155	-0,196768	22,680000	51,860000
2,839871	-155,034204	196,355	-0,197813	22,690000	51,885000
2,815850	-155,674613	197,560	-0,198067	22,690000	51,885000
2,791799	-145,983825	198,763	-0,194210	22,680000	51,845000
2,767857	-0,506684	199,968	-0,136311	22,680000	51,845000
2,743865	-0,565572	201,171	-0,136334	22,680000	51,845000
2,719838	-0,307936	202,374	-0,136231	22,680000	51,845000
2,695873	-0,090786	203,578	-0,136145	22,680000	51,845000
2,671882	-0,182799	204,781	-0,136182	22,690000	51,870000
2,647860	0,074837	205,982	-0,136079	22,690000	51,870000
2,623896	-0,008588	207,183	-0,136112	22,690000	51,845000
2,599886	0,041712	208,386	-0,136092	22,690000	51,845000
2,575857	-0,199974	209,589	-0,136188	22,690000	51,845000
2,551838	0,066249	210,795	-0,136083	22,660000	51,840000