Folder: Nanoindentation_Analysis/Nanoindentation Datenauswertung/data/PDMS (part 7)

File: EM-PDMS-50-10-50-1um-2
Quasi static measurement routine
Tip parameters (shape,radius, material...)
24.08.2022

Piezo position[nm]	MEMS displ.[nm]	Time[ms]	Cap [pf]	Temp [°C]	Rh [%]
eoh
2,625879	-0,017176	0,239	-0,135877	22,720000	52,310000
2,639910	-0,058888	0,939	-0,135894	22,730000	52,300000
2,653904	-0,008588	1,640	-0,135874	22,730000	52,300000
2,667844	-0,266224	2,342	-0,135977	22,730000	52,300000
2,681909	-0,182799	3,045	-0,135943	22,730000	52,300000
2,695849	-0,125137	3,746	-0,135920	22,730000	52,300000
2,709883	-0,125137	4,450	-0,135920	22,730000	52,315000
2,723862	0,041712	5,150	-0,135854	22,730000	52,315000
2,737843	-0,257636	5,854	-0,135973	22,730000	52,315000
2,751824	-0,274812	6,556	-0,135980	22,730000	52,290000
2,765871	-0,249048	7,259	-0,135970	22,730000	52,290000
2,779919	-0,374185	7,961	-0,136020	22,730000	52,290000
2,793864	-0,182799	8,662	-0,135943	22,720000	52,295000
2,807856	-0,266224	9,363	-0,135977	22,720000	52,295000
2,821820	-0,424486	10,066	-0,136040	22,720000	52,295000
2,835897	-0,548396	10,769	-0,136089	22,710000	52,295000
2,849832	-0,415898	11,471	-0,136036	22,710000	52,295000
2,863820	-0,440435	12,171	-0,136046	22,710000	52,295000
2,877897	-0,574160	12,873	-0,136099	22,710000	52,295000
2,891826	-0,374185	13,575	-0,136020	22,710000	52,295000
2,905856	-1,105380	14,278	-0,136311	22,710000	52,295000
2,919910	-0,574160	14,979	-0,136099	22,730000	52,300000
2,933843	-0,482147	15,680	-0,136063	22,730000	52,300000
2,947839	-0,640409	16,383	-0,136125	22,730000	52,300000
2,961803	-0,017176	17,085	-0,135877	22,730000	52,300000
2,975861	-0,872281	17,787	-0,136218	22,730000	52,300000
2,989870	-0,715246	18,488	-0,136155	22,730000	52,275000
3,003875	-0,706658	19,190	-0,136152	22,730000	52,275000
3,017786	-0,723834	19,891	-0,136159	22,730000	52,275000
3,031798	-0,823208	20,592	-0,136198	22,720000	52,320000
3,045796	-1,047719	21,292	-0,136288	22,720000	52,320000
3,059818	-0,856332	21,994	-0,136211	22,720000	52,320000
3,073787	-1,047719	22,697	-0,136288	22,730000	52,315000
3,087815	-1,288179	23,401	-0,136383	22,730000	52,315000
3,101826	-1,363016	24,103	-0,136413	22,730000	52,315000
3,115794	-1,529866	24,805	-0,136479	22,720000	52,295000
3,129838	-1,904052	25,507	-0,136628	22,720000	52,295000
3,143703	-1,737202	26,209	-0,136562	22,720000	52,295000
3,157815	-64,381968	26,911	-0,161495	22,720000	52,295000
3,171837	-62,661943	27,616	-0,160810	22,720000	52,295000
3,185830	-56,271347	28,317	-0,158267	22,720000	52,295000
3,199801	-51,617953	29,018	-0,156415	22,730000	52,300000
3,213790	-45,401568	29,720	-0,153940	22,730000	52,300000
3,227795	-40,771484	30,420	-0,152098	22,710000	52,295000
3,241782	-34,821323	31,123	-0,149729	22,710000	52,295000
3,255819	-28,422140	31,827	-0,147183	22,710000	52,295000
3,269770	-23,793283	32,527	-0,145340	22,720000	52,295000
3,283825	-16,962253	33,228	-0,142622	22,720000	52,295000
3,297847	-12,025459	33,931	-0,140657	22,720000	52,295000
3,311796	-6,134187	34,633	-0,138312	22,720000	52,295000
3,325781	1,337253	35,334	-0,135338	22,720000	52,295000
3,339820	6,557445	36,036	-0,133261	22,720000	52,295000
3,353761	12,963990	36,737	-0,130711	22,730000	52,300000
3,367731	19,953282	37,437	-0,127929	22,730000	52,300000
3,381782	25,753769	38,142	-0,125621	22,730000	52,300000
3,395741	18,764477	38,846	-0,128402	22,720000	52,270000
3,409728	6,108423	39,548	-0,133439	22,720000	52,270000
3,423721	13,520974	40,252	-0,130489	22,720000	52,270000
3,437755	21,324886	40,954	-0,127383	22,730000	52,290000
3,451769	27,632057	41,655	-0,124873	22,730000	52,290000
3,465720	33,350345	42,356	-0,122597	22,730000	52,290000
3,479736	35,959828	43,060	-0,121559	22,730000	52,290000
3,493715	39,275970	43,762	-0,120239	22,730000	52,290000
3,507757	45,334092	44,465	-0,117828	22,720000	52,260000
3,521717	53,512190	45,165	-0,114573	22,720000	52,260000
3,535752	60,800830	45,867	-0,111672	22,720000	52,260000
3,549732	67,889496	46,570	-0,108851	22,720000	52,260000
3,563669	76,059006	47,271	-0,105599	22,720000	52,260000
3,577794	83,105959	47,972	-0,102794	22,720000	52,260000
3,591702	90,368836	48,677	-0,099904	22,720000	52,285000
3,605712	98,339598	49,378	-0,096731	22,720000	52,285000
3,619721	106,134923	50,078	-0,093629	22,720000	52,285000
3,625705	110,314757	50,780	-0,091965	22,720000	52,285000
3,625734	109,799486	51,482	-0,092170	22,720000	52,285000
3,625760	109,085466	52,185	-0,092455	22,720000	52,285000
3,625725	108,669569	52,886	-0,092620	22,720000	52,285000
3,625759	107,987447	53,590	-0,092892	22,720000	52,285000
3,625697	107,870897	54,290	-0,092938	22,720000	52,285000
3,625697	107,315140	54,991	-0,093159	22,730000	52,275000
3,625695	107,580137	55,693	-0,093054	22,730000	52,275000
3,625724	107,240303	56,394	-0,093189	22,730000	52,275000
3,625709	106,758156	57,096	-0,093381	22,730000	52,275000
3,625709	106,326309	57,797	-0,093553	22,730000	52,275000
3,625709	106,599894	58,500	-0,093444	22,720000	52,270000
3,625737	106,392558	59,201	-0,093526	22,720000	52,270000
3,625721	106,284597	59,903	-0,093569	22,720000	52,270000
3,621724	104,547395	60,604	-0,094261	22,720000	52,270000
3,607711	93,942613	61,307	-0,098481	22,720000	52,270000
3,593651	86,114165	62,008	-0,101597	22,720000	52,270000
3,579737	77,138623	62,711	-0,105169	22,710000	52,260000
3,565740	68,063707	63,414	-0,108781	22,710000	52,260000
3,551719	59,495475	64,115	-0,112191	22,710000	52,260000
3,537743	49,497978	64,816	-0,116170	22,710000	52,310000
3,523722	40,405887	65,516	-0,119789	22,710000	52,310000
3,509722	32,319802	66,217	-0,123007	22,710000	52,310000
3,495774	24,233717	66,920	-0,126226	22,710000	52,310000
3,481798	15,366137	67,623	-0,129755	22,710000	52,310000
3,467756	7,637062	68,324	-0,132831	22,710000	52,310000
3,453794	-0,872281	69,028	-0,136218	22,720000	52,295000
3,439767	-8,235759	69,730	-0,139148	22,720000	52,295000
3,425772	-16,156221	70,431	-0,142301	22,730000	52,290000
3,411813	-25,164887	71,134	-0,145886	22,730000	52,290000
3,397762	-32,495240	71,834	-0,148804	22,730000	52,290000
3,383834	-41,503906	72,536	-0,152389	22,710000	52,320000
3,369756	-48,209799	73,239	-0,155058	22,710000	52,320000
3,355786	-55,813737	73,940	-0,158084	22,710000	52,320000
3,341791	-63,418901	74,640	-0,161111	22,710000	52,260000
3,327790	-70,648653	75,342	-0,163989	22,710000	52,260000
3,313756	-77,472323	76,044	-0,166705	22,710000	52,260000
3,299841	-85,591532	76,750	-0,169936	22,720000	52,285000
3,285782	-90,711124	77,453	-0,171974	22,720000	52,285000
3,271822	-97,167969	78,154	-0,174543	22,720000	52,285000
3,257739	-101,779650	78,855	-0,176379	22,720000	52,285000
3,243786	-105,395140	79,556	-0,177818	22,720000	52,285000
3,229836	-109,783537	80,256	-0,179564	22,720000	52,285000
3,215858	-114,877365	80,959	-0,181592	22,730000	52,325000
3,201838	-122,731578	81,660	-0,184718	22,730000	52,325000
3,187868	-129,712282	82,363	-0,187496	22,730000	52,325000
3,173815	-136,351926	83,067	-0,190139	22,720000	52,285000
3,159824	-142,610023	83,770	-0,192629	22,720000	52,285000
3,145796	-148,777334	84,470	-0,195084	22,720000	52,295000
3,131856	-155,857412	85,171	-0,197902	22,720000	52,295000
3,117796	-163,852711	85,872	-0,201084	22,720000	52,295000
3,103830	-170,626080	86,574	-0,203780	22,710000	52,295000
3,089761	-176,210643	87,274	-0,206002	22,710000	52,295000
3,075825	-182,759501	87,974	-0,208609	22,710000	52,295000
3,061820	-191,044333	88,675	-0,211906	22,710000	52,295000
3,047821	-196,853408	89,376	-0,214218	22,710000	52,295000
3,033849	-201,865038	90,077	-0,216213	22,710000	52,295000
3,019803	-208,721832	90,779	-0,218942	22,720000	52,295000
3,005863	-213,641449	91,484	-0,220900	22,720000	52,295000
2,991872	-217,755035	92,184	-0,222537	22,720000	52,295000
2,977929	-219,607559	92,887	-0,223274	22,730000	52,250000
2,963849	-161,325426	93,592	-0,200078	22,730000	52,250000
2,949883	-155,425565	94,294	-0,197730	22,730000	52,250000
2,935851	-156,422984	94,995	-0,198127	22,720000	52,285000
2,921831	-159,090128	95,696	-0,199188	22,720000	52,285000
2,907863	-160,686244	96,396	-0,199824	22,720000	52,285000
2,893869	-162,298308	97,096	-0,200465	22,720000	52,285000
2,879835	-162,829529	97,797	-0,200677	22,720000	52,285000
2,865853	-162,681081	98,499	-0,200618	22,730000	52,275000
2,851857	-157,876786	99,203	-0,198706	22,730000	52,275000
2,837858	-141,105920	99,905	-0,192031	22,730000	52,275000
2,823877	-0,398722	100,606	-0,136029	22,730000	52,290000
2,809883	-0,515272	101,307	-0,136076	22,730000	52,290000
2,795884	-0,349649	102,007	-0,136010	22,730000	52,290000
2,781907	-0,731195	102,707	-0,136162	22,710000	52,310000
2,767816	-0,698070	103,408	-0,136148	22,710000	52,310000
2,753870	-0,466198	104,109	-0,136056	22,710000	52,310000
2,739905	-0,574160	104,811	-0,136099	22,710000	52,310000
2,725869	-0,440435	105,513	-0,136046	22,710000	52,310000
2,711924	-0,482147	106,214	-0,136063	22,710000	52,310000
2,697848	-0,581521	106,914	-0,136102	22,730000	52,275000
2,683853	-0,283399	107,616	-0,135983	22,730000	52,275000
2,669930	-0,499323	108,318	-0,136069	22,730000	52,275000
2,655857	-0,499323	109,020	-0,136069	22,730000	52,275000
2,641907	-0,166850	109,721	-0,135937	22,730000	52,275000
2,627872	-0,092013	110,424	-0,135907	22,720000	52,270000
2,625884	-0,208562	110,524	-0,135954	22,720000	52,270000

File: EM-PDMS-50-10-50-1um-3
Quasi static measurement routine
Tip parameters (shape,radius, material...)
24.08.2022

Piezo position[nm]	MEMS displ.[nm]	Time[ms]	Cap [pf]	Temp [°C]	Rh [%]
eoh
2,633714	0,149674	0,211	-0,135801	22,710000	52,245000
2,647793	0,257636	0,912	-0,135758	22,710000	52,245000
2,661732	0,274812	1,612	-0,135751	22,710000	52,260000
2,675758	0,208562	2,313	-0,135778	22,710000	52,260000
2,689704	0,182799	3,014	-0,135788	22,710000	52,260000
2,703740	0,008588	3,716	-0,135857	22,730000	52,250000
2,717719	-0,083425	4,418	-0,135894	22,730000	52,250000
2,731730	0,025764	5,121	-0,135851	22,730000	52,250000
2,745745	0,050300	5,822	-0,135841	22,720000	52,260000
2,759783	-0,041712	6,524	-0,135877	22,720000	52,260000
2,773742	0,166850	7,226	-0,135794	22,730000	52,275000
2,787697	0,090786	7,927	-0,135825	22,730000	52,275000
2,801700	0,174211	8,629	-0,135792	22,730000	52,275000
2,815749	-0,182799	9,330	-0,135934	22,730000	52,275000
2,829744	-0,050300	10,030	-0,135881	22,730000	52,275000
2,843740	-0,057661	10,731	-0,135884	22,730000	52,275000
2,857754	-0,141086	11,432	-0,135917	22,730000	52,225000
2,871720	-0,066249	12,136	-0,135887	22,730000	52,225000
2,885724	-0,050300	12,840	-0,135881	22,730000	52,225000
2,899720	-0,191387	13,541	-0,135937	22,720000	52,260000
2,913740	-0,266224	14,243	-0,135967	22,720000	52,260000
2,927699	-0,290760	14,946	-0,135977	22,720000	52,260000
2,941688	-0,307936	15,649	-0,135983	22,730000	52,290000
2,955719	-0,282173	16,350	-0,135973	22,730000	52,290000
2,969730	-0,449022	17,051	-0,136040	22,730000	52,290000
2,983729	-0,772908	17,752	-0,136168	22,730000	52,290000
2,997738	-0,398722	18,454	-0,136020	22,730000	52,290000
3,011635	-0,748371	19,155	-0,136159	22,720000	52,260000
3,025701	-0,365598	19,859	-0,136006	22,720000	52,260000
3,039695	-0,357010	20,559	-0,136003	22,720000	52,260000
3,053657	-0,174211	21,261	-0,135930	22,720000	52,220000
3,067722	-0,698070	21,963	-0,136139	22,720000	52,220000
3,081661	-0,498096	22,664	-0,136059	22,720000	52,220000
3,095726	-0,880869	23,367	-0,136211	22,720000	52,245000
3,109693	-0,706658	24,069	-0,136142	22,720000	52,245000
3,123687	-0,706658	24,770	-0,136142	22,720000	52,245000
3,137649	-0,797444	25,471	-0,136178	22,720000	52,245000
3,151621	-1,113968	26,173	-0,136304	22,720000	52,245000
3,165706	-65,894659	26,874	-0,162087	22,720000	52,245000
3,179679	-61,140664	27,577	-0,160195	22,710000	52,245000
3,193735	-57,234414	28,278	-0,158640	22,710000	52,245000
3,207680	-51,110042	28,979	-0,156203	22,710000	52,245000
3,221715	-45,990450	29,679	-0,154165	22,710000	52,245000
3,235630	-40,240264	30,379	-0,151876	22,710000	52,245000
3,249679	-35,777030	31,083	-0,150100	22,710000	52,245000
3,263694	-30,582601	31,784	-0,148033	22,720000	52,220000
3,277651	-25,015213	32,489	-0,145817	22,720000	52,220000
3,291683	-18,116707	33,190	-0,143071	22,730000	52,210000
3,305651	-13,505025	33,890	-0,141236	22,730000	52,210000
3,319650	-7,172091	34,593	-0,138715	22,730000	52,210000
3,333667	-1,645189	35,293	-0,136516	22,720000	52,270000
3,347703	4,080461	35,994	-0,134237	22,720000	52,270000
3,361629	11,269728	36,696	-0,131375	22,720000	52,270000
3,375656	17,070214	37,399	-0,129067	22,720000	52,270000
3,389648	24,907251	38,102	-0,125948	22,720000	52,270000
3,403666	0,548396	38,804	-0,135643	22,720000	52,270000
3,417637	5,018991	39,506	-0,133863	22,730000	52,210000
3,431623	13,289102	40,208	-0,130572	22,730000	52,210000
3,445626	18,739940	40,909	-0,128402	22,730000	52,210000
3,459616	26,510727	41,609	-0,125310	22,720000	52,260000
3,473630	33,217847	42,311	-0,122640	22,720000	52,260000
3,487665	36,516813	43,011	-0,121327	22,720000	52,260000
3,501605	36,783036	43,713	-0,121221	22,720000	52,230000
3,515596	43,672955	44,416	-0,118479	22,720000	52,230000
3,529583	49,365480	45,120	-0,116213	22,720000	52,230000
3,543590	58,656319	45,820	-0,112516	22,710000	52,260000
3,557600	64,848167	46,521	-0,110051	22,710000	52,260000
3,571583	73,482648	47,224	-0,106615	22,710000	52,260000
3,585676	81,403109	47,927	-0,103462	22,710000	52,260000
3,599591	88,524900	48,628	-0,100628	22,710000	52,260000
3,613556	96,668646	49,329	-0,097387	22,730000	52,250000
3,627576	105,079843	50,030	-0,094039	22,730000	52,250000
3,633558	108,744406	50,732	-0,092581	22,730000	52,250000
3,633575	107,772750	51,435	-0,092967	22,710000	52,220000
3,633520	107,515115	52,137	-0,093070	22,710000	52,220000
3,633579	106,758156	52,840	-0,093371	22,710000	52,220000
3,633577	106,808456	53,540	-0,093351	22,730000	52,225000
3,633623	106,218348	54,241	-0,093586	22,730000	52,225000
3,633570	105,960712	54,944	-0,093688	22,730000	52,225000
3,633558	105,719025	55,644	-0,093785	22,720000	52,245000
3,633592	105,454028	56,345	-0,093890	22,720000	52,245000
3,633600	105,137504	57,049	-0,094016	22,720000	52,245000
3,633585	105,071255	57,752	-0,094042	22,720000	52,245000
3,633588	104,688481	58,456	-0,094195	22,720000	52,245000
3,633566	104,681120	59,159	-0,094198	22,720000	52,245000
3,633551	104,348648	59,861	-0,094330	22,720000	52,245000
3,629538	102,370986	60,563	-0,095117	22,720000	52,245000
3,615568	93,278894	61,264	-0,098736	22,720000	52,230000
3,601553	84,361014	61,968	-0,102285	22,720000	52,230000
3,587564	75,735121	62,669	-0,105718	22,720000	52,230000
3,573518	64,482569	63,370	-0,110197	22,720000	52,245000
3,559606	56,238222	64,070	-0,113478	22,720000	52,245000
3,545551	48,891921	64,770	-0,116402	22,720000	52,245000
3,531553	39,035510	65,472	-0,120325	22,720000	52,260000
3,517662	31,315022	66,173	-0,123397	22,720000	52,260000
3,503622	22,081845	66,875	-0,127072	22,720000	52,260000
3,489632	14,676655	67,577	-0,130020	22,720000	52,245000
3,475600	6,174672	68,279	-0,133403	22,720000	52,245000
3,461542	-3,357854	68,982	-0,137197	22,720000	52,245000
3,447600	-11,459887	69,683	-0,140422	22,720000	52,230000
3,433602	-18,292144	70,386	-0,143141	22,720000	52,230000
3,419590	-26,418715	71,088	-0,146375	22,720000	52,230000
3,405628	-34,647113	71,790	-0,149650	22,720000	52,260000
3,391573	-43,406731	72,490	-0,153137	22,720000	52,260000
3,377640	-50,678196	73,192	-0,156031	22,720000	52,260000
3,363620	-58,889418	73,893	-0,159299	22,720000	52,260000
3,349619	-65,861534	74,595	-0,162074	22,720000	52,260000
3,335637	-75,061587	75,298	-0,165735	22,720000	52,220000
3,321584	-80,795825	75,999	-0,168018	22,720000	52,220000
3,307640	-89,097833	76,699	-0,171322	22,720000	52,220000
3,293671	-96,036825	77,401	-0,174083	22,720000	52,220000
3,279676	-102,519433	78,101	-0,176664	22,720000	52,220000
3,265702	-106,035549	78,803	-0,178063	22,720000	52,220000
3,251654	-110,455844	79,503	-0,179822	22,730000	52,235000
3,237638	-113,023614	80,205	-0,180844	22,730000	52,235000
3,223667	-117,495436	80,905	-0,182624	22,730000	52,235000
3,209685	-123,005163	81,608	-0,184817	22,730000	52,235000
3,195680	-128,979860	82,309	-0,187195	22,730000	52,235000
3,181673	-135,587606	83,009	-0,189825	22,730000	52,235000
3,167614	-142,484885	83,711	-0,192570	22,730000	52,250000
3,153646	-149,200593	84,412	-0,195243	22,730000	52,250000
3,139663	-156,995917	85,114	-0,198345	22,730000	52,250000
3,125678	-162,422219	85,817	-0,200505	22,730000	52,250000
3,111676	-170,417517	86,519	-0,203687	22,730000	52,250000
3,097673	-175,735857	87,222	-0,205804	22,720000	52,260000
3,083699	-182,766862	87,924	-0,208602	22,720000	52,260000
3,069681	-188,443438	88,626	-0,210861	22,720000	52,260000
3,055680	-194,393599	89,328	-0,213229	22,720000	52,205000
3,041672	-200,061587	90,028	-0,215485	22,720000	52,205000
3,027681	-206,170010	90,728	-0,217917	22,720000	52,205000
3,013666	-210,457807	91,430	-0,219623	22,730000	52,235000
2,999682	-214,571392	92,131	-0,221260	22,730000	52,235000
2,985724	-178,063167	92,832	-0,206730	22,730000	52,235000
2,971699	-151,710702	93,534	-0,196242	22,730000	52,235000
2,957734	-152,673769	94,235	-0,196625	22,730000	52,235000
2,943726	-151,884913	94,938	-0,196311	22,730000	52,235000
2,929711	-153,679776	95,640	-0,197025	22,730000	52,235000
2,915747	-154,710319	96,341	-0,197436	22,730000	52,235000
2,901708	-154,884530	97,041	-0,197505	22,730000	52,235000
2,887660	-155,915073	97,745	-0,197915	22,730000	52,235000
2,873683	-155,599776	98,445	-0,197790	22,730000	52,235000
2,859729	-148,220350	99,146	-0,194853	22,730000	52,235000
2,845670	-0,365598	99,848	-0,136006	22,720000	52,205000
2,831736	-0,548396	100,548	-0,136079	22,720000	52,205000
2,817720	-0,107962	101,249	-0,135904	22,730000	52,265000
2,803729	-0,215923	101,950	-0,135947	22,730000	52,265000
2,789742	-0,390134	102,651	-0,136016	22,730000	52,265000
2,775714	-0,233099	103,354	-0,135954	22,720000	52,220000
2,761711	-0,714019	104,057	-0,136145	22,720000	52,220000
2,747693	-0,149674	104,760	-0,135920	22,720000	52,220000
2,733704	-0,066249	105,461	-0,135887	22,720000	52,220000
2,719730	-0,290760	106,162	-0,135977	22,720000	52,220000
2,705692	0,107962	106,864	-0,135818	22,720000	52,220000
2,691694	0,025764	107,566	-0,135851	22,730000	52,275000
2,677694	-0,008588	108,269	-0,135864	22,730000	52,275000
2,663740	0,215923	108,970	-0,135775	22,730000	52,275000
2,649741	0,083425	109,670	-0,135828	22,710000	52,220000
2,635727	-0,033125	110,373	-0,135874	22,710000	52,220000
2,633723	0,025764	110,474	-0,135851	22,710000	52,220000