Folder: Nanoindentation_Analysis/Nanoindentation Datenauswertung/data/PDMS (part 3)

File: EM-PDMS-50-10-50-0,5um-1
Quasi static measurement routine
Tip parameters (shape,radius, material...)
12.08.2022

Piezo position[nm]	MEMS displ.[nm]	Time[ms]	Cap [pf]	Temp [°C]	Rh [%]
eoh
2,040028	-0,259137	0,185	-0,106373	22,350000	47,335000
2,046503	0,130768	0,842	-0,106214	22,350000	47,335000
2,053001	0,391105	1,526	-0,106108	22,350000	47,335000
2,059519	0,585458	2,201	-0,106029	22,360000	47,350000
2,065996	0,195552	2,863	-0,106188	22,360000	47,350000
2,072525	-0,064784	3,515	-0,106294	22,360000	47,350000
2,079034	-0,325121	4,185	-0,106400	22,350000	47,320000
2,085519	-0,194353	4,845	-0,106347	22,350000	47,320000
2,091974	-0,129568	5,524	-0,106320	22,350000	47,320000
2,098549	-0,650242	6,198	-0,106532	22,350000	47,320000
2,105023	-0,064784	6,851	-0,106294	22,350000	47,320000
2,111478	0,130768	7,514	-0,106214	22,350000	47,320000
2,118008	-0,519474	8,165	-0,106479	22,350000	47,350000
2,124496	0,000000	8,818	-0,106268	22,350000	47,350000
2,130965	-0,519474	9,472	-0,106479	22,350000	47,350000
2,137475	-0,064784	10,125	-0,106294	22,350000	47,350000
2,143994	0,064784	10,777	-0,106241	22,350000	47,350000
2,150462	-0,519474	11,430	-0,106479	22,350000	47,350000
2,156979	-0,779810	12,085	-0,106585	22,360000	47,335000
2,163458	0,260337	12,739	-0,106162	22,360000	47,335000
2,170002	0,130768	13,393	-0,106214	22,360000	47,335000
2,176516	0,195552	14,047	-0,106188	22,350000	47,350000
2,182945	-0,259137	14,702	-0,106373	22,350000	47,350000
2,189462	-0,064784	15,362	-0,106294	22,350000	47,350000
2,196010	-0,064784	16,023	-0,106294	22,350000	47,350000
2,202498	-0,519474	16,679	-0,106479	22,350000	47,350000
2,208998	-0,519474	17,333	-0,106479	22,350000	47,350000
2,215515	-6,111314	17,987	-0,108755	22,350000	47,350000
2,221977	-3,055657	18,675	-0,107511	22,350000	47,350000
2,228502	-1,234500	19,330	-0,106770	22,350000	47,350000
2,235035	0,520673	19,982	-0,106056	22,350000	47,350000
2,241512	2,080294	20,652	-0,105421	22,350000	47,350000
2,247990	4,420925	21,342	-0,104468	22,350000	47,350000
2,254535	6,111314	22,002	-0,103780	22,350000	47,350000
2,260957	7,476582	22,701	-0,103225	22,350000	47,350000
2,267517	9,297739	23,404	-0,102483	22,350000	47,350000
2,273941	10,727791	24,083	-0,101901	22,350000	47,350000
2,280545	12,157843	24,800	-0,101319	22,350000	47,350000
2,287002	13,979000	25,478	-0,100578	22,350000	47,350000
2,293457	16,253647	26,162	-0,099652	22,340000	47,335000
2,300006	18,139588	26,819	-0,098885	22,340000	47,335000
2,306496	19,700409	27,489	-0,098250	22,340000	47,335000
2,312978	21,130461	28,160	-0,097667	22,360000	47,335000
2,319457	24,965928	28,825	-0,096106	22,360000	47,335000
2,325935	26,981438	29,506	-0,095286	22,360000	47,335000
2,332518	28,151154	30,165	-0,094810	22,360000	47,350000
2,338998	30,037095	30,857	-0,094042	22,360000	47,350000
2,345488	31,987821	31,541	-0,093249	22,360000	47,350000
2,351956	34,328451	32,194	-0,092296	22,340000	47,375000
2,358515	36,473530	32,852	-0,091423	22,340000	47,375000
2,365065	38,099134	33,522	-0,090761	22,340000	47,375000
2,371524	40,179428	34,175	-0,089915	22,360000	47,350000
2,377965	41,544696	34,853	-0,089359	22,360000	47,350000
2,384467	42,715612	35,532	-0,088882	22,360000	47,350000
2,390976	43,495422	36,202	-0,088565	22,360000	47,350000
2,397485	45,510932	36,854	-0,087745	22,360000	47,350000
2,403974	47,070552	37,506	-0,087110	22,360000	47,350000
2,410519	47,460458	38,163	-0,086951	22,350000	47,320000
2,417011	50,061425	38,829	-0,085893	22,350000	47,320000
2,423506	51,556262	39,530	-0,085284	22,350000	47,320000
2,429980	54,222013	40,196	-0,084199	22,350000	47,350000
2,436534	56,107955	40,853	-0,083432	22,350000	47,350000
2,442966	58,578154	41,554	-0,082426	22,350000	47,350000
2,449490	62,219268	42,207	-0,080944	22,350000	47,350000
2,456018	64,105210	42,887	-0,080177	22,350000	47,350000
2,462495	67,096082	43,555	-0,078959	22,350000	47,350000
2,468918	69,176376	44,209	-0,078113	22,350000	47,335000
2,475488	72,426386	44,871	-0,076790	22,350000	47,335000
2,482047	74,831801	45,549	-0,075811	22,350000	47,335000
2,488475	77,107647	46,209	-0,074885	22,350000	47,310000
2,494996	79,448278	46,885	-0,073932	22,350000	47,310000
2,501487	83,218961	47,614	-0,072397	22,350000	47,310000
2,508005	86,534955	48,270	-0,071048	22,350000	47,350000
2,514520	88,419696	48,943	-0,070281	22,350000	47,350000
2,521004	91,216216	49,610	-0,069143	22,350000	47,350000
2,527484	93,751200	50,277	-0,068111	22,350000	47,350000
2,533993	96,872841	50,949	-0,066840	22,350000	47,350000
2,540003	98,628014	51,610	-0,066126	22,350000	47,350000
2,539999	97,977772	52,271	-0,066391	22,350000	47,320000
2,539969	98,172125	52,941	-0,066312	22,350000	47,320000
2,540034	97,717435	53,612	-0,066497	22,350000	47,320000
2,539988	97,002409	54,277	-0,066788	22,350000	47,335000
2,539970	96,937625	54,965	-0,066814	22,350000	47,335000
2,540015	96,872841	55,633	-0,066840	22,350000	47,335000
2,539969	97,002409	56,312	-0,066788	22,350000	47,335000
2,540018	96,806857	56,965	-0,066867	22,350000	47,335000
2,540005	96,806857	57,644	-0,066867	22,350000	47,335000
2,539999	96,222599	58,315	-0,067105	22,350000	47,335000
2,539960	95,766710	58,973	-0,067291	22,350000	47,335000
2,540010	96,222599	59,650	-0,067105	22,350000	47,335000
2,539946	95,832693	60,323	-0,067264	22,350000	47,335000
2,539964	95,441589	60,995	-0,067423	22,350000	47,335000
2,540014	94,922115	61,663	-0,067634	22,350000	47,320000
2,535501	92,646268	62,329	-0,068561	22,350000	47,320000
2,528988	89,265491	62,995	-0,069937	22,350000	47,320000
2,522511	86,274618	63,665	-0,071154	22,350000	47,350000
2,515961	83,089393	64,326	-0,072450	22,350000	47,350000
2,509453	78,993589	65,000	-0,074117	22,350000	47,350000
2,502977	75,612811	65,682	-0,075493	22,360000	47,350000
2,496496	71,971696	66,333	-0,076975	22,360000	47,350000
2,489948	68,980824	66,988	-0,078192	22,360000	47,350000
2,483478	65,145357	67,661	-0,079753	22,360000	47,350000
2,477008	62,544389	68,329	-0,080812	22,360000	47,350000
2,470457	59,619501	68,983	-0,082002	22,360000	47,350000
2,464002	55,847618	69,663	-0,083538	22,360000	47,335000
2,457500	52,922729	70,328	-0,084728	22,360000	47,335000
2,450991	49,801088	70,987	-0,085999	22,360000	47,335000
2,444541	47,395673	71,662	-0,086978	22,360000	47,335000
2,438024	44,210448	72,364	-0,088274	22,360000	47,335000
2,431453	41,219575	73,027	-0,089491	22,360000	47,335000
2,424962	37,903582	73,681	-0,090841	22,360000	47,320000
2,418483	34,328451	74,366	-0,092296	22,360000	47,320000
2,411995	32,377726	75,035	-0,093090	22,360000	47,320000
2,405528	30,232647	75,731	-0,093963	22,350000	47,350000
2,398987	27,046222	76,414	-0,095260	22,350000	47,350000
2,392515	24,901144	77,083	-0,096133	22,350000	47,350000
2,385993	22,820850	77,782	-0,096979	22,350000	47,350000
2,379458	20,609788	78,439	-0,097879	22,350000	47,350000
2,372988	19,440072	79,119	-0,098355	22,350000	47,350000
2,366488	17,293794	79,785	-0,099229	22,340000	47,350000
2,359980	15,409053	80,481	-0,099996	22,340000	47,350000
2,353526	14,433690	81,163	-0,100393	22,340000	47,350000
2,347019	12,157843	81,841	-0,101319	22,350000	47,320000
2,340500	10,792575	82,509	-0,101875	22,350000	47,320000
2,334016	9,817212	83,192	-0,102272	22,350000	47,320000
2,327475	7,997255	83,862	-0,103013	22,350000	47,320000
2,321042	6,892324	84,537	-0,103462	22,350000	47,320000
2,314467	5,006382	85,223	-0,104230	22,350000	47,320000
2,307991	3,120441	85,889	-0,104998	22,350000	47,350000
2,301528	2,340631	86,570	-0,105315	22,350000	47,350000
2,295005	0,260337	87,249	-0,106162	22,350000	47,350000
2,288502	-1,104931	87,948	-0,106717	22,350000	47,350000
2,282029	-2,145078	88,615	-0,107141	22,350000	47,350000
2,275469	-3,120441	89,315	-0,107538	22,350000	47,350000
2,269031	-5,200735	89,999	-0,108384	22,360000	47,320000
2,262495	-5,915761	90,687	-0,108675	22,360000	47,320000
2,255951	-6,761556	91,372	-0,109020	22,360000	47,320000
2,249487	-8,191608	92,052	-0,109602	22,350000	47,350000
2,243020	-9,166971	92,778	-0,109999	22,350000	47,350000
2,236472	-9,556876	93,444	-0,110157	22,350000	47,350000
2,230036	-10,532239	94,131	-0,110554	22,350000	47,350000
2,223481	-10,986928	94,804	-0,110739	22,350000	47,350000
2,216998	-11,897507	95,457	-0,111110	22,350000	47,350000
2,210499	-12,547748	96,139	-0,111375	22,350000	47,335000
2,203939	-13,002438	96,840	-0,111560	22,350000	47,335000
2,197509	-13,977801	97,505	-0,111957	22,350000	47,335000
2,191018	-13,848232	98,184	-0,111904	22,350000	47,350000
2,184509	-15,472637	98,874	-0,112565	22,350000	47,350000
2,177968	-17,098242	99,559	-0,113227	22,350000	47,350000
2,171491	-16,708337	100,236	-0,113068	22,340000	47,335000
2,165026	-0,585458	100,926	-0,106506	22,340000	47,335000
2,158514	-0,064784	101,615	-0,106294	22,340000	47,335000
2,152020	0,260337	102,303	-0,106162	22,350000	47,335000
2,145449	0,130768	102,984	-0,106214	22,350000	47,335000
2,138998	-0,194353	103,653	-0,106347	22,350000	47,310000
2,132512	-0,585458	104,313	-0,106506	22,350000	47,310000
2,125996	0,064784	105,014	-0,106241	22,350000	47,310000
2,119464	-0,389905	105,708	-0,106426	22,350000	47,310000
2,113022	-0,519474	106,408	-0,106479	22,350000	47,310000
2,106510	-0,129568	107,092	-0,106320	22,350000	47,310000
2,099982	-0,715026	107,797	-0,106559	22,360000	47,320000
2,093567	-0,259137	108,489	-0,106373	22,360000	47,320000
2,087013	-0,064784	109,195	-0,106294	22,360000	47,320000
2,080466	-0,650242	109,873	-0,106532	22,360000	47,360000
2,073967	-0,454689	110,589	-0,106453	22,360000	47,360000
2,067467	0,195552	111,270	-0,106188	22,360000	47,360000
2,061025	-0,585458	111,959	-0,106506	22,350000	47,320000
2,054496	-0,454689	112,640	-0,106453	22,350000	47,320000
2,048041	0,000000	113,354	-0,106268	22,350000	47,320000
2,041512	-0,064784	114,061	-0,106294	22,350000	47,320000
2,039998	0,195552	114,213	-0,106188	22,350000	47,320000

File: EM-PDMS-50-10-50-0,5um-2
Quasi static measurement routine
Tip parameters (shape,radius, material...)
15.08.2022

Piezo position[nm]	MEMS displ.[nm]	Time[ms]	Cap [pf]	Temp [°C]	Rh [%]
eoh
2,119912	-0,129568	0,154	-0,106029	22,350000	52,710000
2,126374	-0,779810	0,835	-0,106294	22,350000	52,710000
2,132890	-0,260337	1,521	-0,106083	22,350000	52,710000
2,139443	-0,323921	2,174	-0,106108	22,360000	52,710000
2,145936	-0,260337	2,827	-0,106083	22,360000	52,710000
2,152393	-0,064784	3,492	-0,106003	22,360000	52,710000
2,158973	-0,323921	4,153	-0,106108	22,360000	52,700000
2,165398	-0,260337	4,803	-0,106083	22,360000	52,700000
2,171918	-0,260337	5,455	-0,106083	22,360000	52,700000
2,178449	-0,519474	6,110	-0,106188	22,350000	52,685000
2,184971	-0,323921	6,761	-0,106108	22,350000	52,685000
2,191514	-0,389905	7,415	-0,106135	22,350000	52,685000
2,197909	-0,715026	8,071	-0,106268	22,360000	52,700000
2,204440	-0,631047	8,726	-0,106233	22,360000	52,700000
2,210940	-0,323921	9,384	-0,106108	22,360000	52,700000
2,217389	0,325121	10,044	-0,105844	22,360000	52,700000
2,223886	-0,260337	10,707	-0,106083	22,360000	52,700000
2,230428	-0,323921	11,360	-0,106108	22,360000	52,700000
2,236930	0,195552	12,014	-0,105897	22,350000	52,725000
2,243406	0,000000	12,666	-0,105977	22,350000	52,725000
2,249941	-0,715026	13,317	-0,106268	22,350000	52,725000
2,256432	-0,779810	13,974	-0,106294	22,360000	52,710000
2,262894	-0,323921	14,643	-0,106108	22,360000	52,710000
2,269463	-0,260337	15,324	-0,106083	22,360000	52,710000
2,275882	-0,454689	15,985	-0,106162	22,350000	52,685000
2,282361	-0,715026	16,640	-0,106268	22,350000	52,685000
2,288956	-0,650242	17,295	-0,106241	22,350000	52,685000
2,295476	-0,519474	17,960	-0,106188	22,350000	52,685000
2,301909	-3,900251	18,628	-0,107564	22,350000	52,685000
2,308429	-1,300484	19,288	-0,106506	22,350000	52,685000
2,314966	1,106131	19,948	-0,105526	22,360000	52,700000
2,321372	4,551693	20,648	-0,104124	22,360000	52,700000
2,327868	6,436435	21,322	-0,103357	22,360000	52,700000
2,334402	9,687644	21,991	-0,102034	22,370000	52,715000
2,340910	12,418180	22,655	-0,100922	22,370000	52,715000
2,347463	15,083932	23,353	-0,099837	22,370000	52,715000
2,353942	16,253647	24,066	-0,099361	22,360000	52,710000
2,360432	19,765193	24,730	-0,097932	22,360000	52,710000
2,366913	22,820850	25,408	-0,096688	22,360000	52,710000
2,373441	24,056549	26,075	-0,096186	22,360000	52,700000
2,379879	28,086369	26,741	-0,094545	22,360000	52,700000
2,386432	30,752121	27,399	-0,093460	22,360000	52,700000
2,392864	32,833615	28,082	-0,092613	22,360000	52,700000
2,399367	35,433383	28,762	-0,091555	22,360000	52,700000
2,405923	37,709229	29,464	-0,090629	22,360000	52,700000
2,412418	40,894454	30,123	-0,089333	22,360000	52,700000
2,418951	43,105517	30,815	-0,088433	22,360000	52,700000
2,425424	45,121027	31,473	-0,087612	22,360000	52,700000
2,431936	48,501804	32,135	-0,086236	22,360000	52,700000
2,438417	49,931857	32,789	-0,085654	22,360000	52,700000
2,444919	52,597608	33,457	-0,084569	22,360000	52,700000
2,451407	55,003023	34,110	-0,083590	22,350000	52,725000
2,457933	57,083317	34,775	-0,082744	22,350000	52,725000
2,464417	60,919984	35,458	-0,081182	22,350000	52,725000
2,470947	63,259415	36,140	-0,080230	22,350000	52,725000
2,477429	65,080572	36,791	-0,079489	22,350000	52,725000
2,483870	67,680340	37,460	-0,078431	22,350000	52,725000
2,490371	70,801981	38,139	-0,077160	22,360000	52,700000
2,496883	71,581791	38,809	-0,076843	22,360000	52,700000
2,503421	73,987206	39,478	-0,075864	22,360000	52,700000
2,509878	77,042863	40,140	-0,074620	22,360000	52,700000
2,516419	78,603684	40,793	-0,073985	22,360000	52,700000
2,522869	79,579046	41,443	-0,073588	22,360000	52,700000
2,529374	81,528572	42,139	-0,072794	22,360000	52,700000
2,535904	83,544082	42,797	-0,071974	22,360000	52,700000
2,542427	85,819929	43,467	-0,071048	22,360000	52,700000
2,548878	87,965007	44,141	-0,070175	22,360000	52,700000
2,555378	89,720180	44,799	-0,069460	22,360000	52,700000
2,561913	92,321147	45,454	-0,068402	22,360000	52,700000
2,568390	94,401442	46,123	-0,067555	22,360000	52,710000
2,574870	95,897478	46,797	-0,066946	22,360000	52,710000
2,581446	98,692798	47,452	-0,065809	22,360000	52,710000
2,587901	100,578739	48,151	-0,065041	22,350000	52,710000
2,594449	103,178507	48,803	-0,063983	22,350000	52,710000
2,600868	106,494501	49,489	-0,062633	22,350000	52,710000
2,607423	109,029484	50,153	-0,061602	22,350000	52,710000
2,613905	110,785857	50,841	-0,060887	22,350000	52,710000
2,619910	113,060504	51,498	-0,059961	22,350000	52,710000
2,619891	112,085141	52,160	-0,060358	22,360000	52,710000
2,619855	112,411462	52,831	-0,060225	22,360000	52,710000
2,619839	110,525520	53,499	-0,060993	22,360000	52,710000
2,619880	111,305331	54,178	-0,060675	22,360000	52,700000
2,619892	110,915425	54,858	-0,060834	22,360000	52,700000
2,619859	111,695236	55,511	-0,060517	22,360000	52,700000
2,619950	110,329968	56,183	-0,061072	22,360000	52,710000
2,619835	109,745710	56,858	-0,061310	22,360000	52,710000
2,619867	109,614942	57,536	-0,061363	22,360000	52,710000
2,619846	109,679726	58,190	-0,061337	22,350000	52,695000
2,619905	109,485373	58,859	-0,061416	22,350000	52,695000
2,619918	108,770347	59,514	-0,061707	22,350000	52,695000
2,619864	108,639579	60,180	-0,061760	22,350000	52,695000
2,619906	108,770347	60,855	-0,061707	22,350000	52,695000
2,619837	107,859769	61,519	-0,062078	22,350000	52,695000
2,615429	106,039811	62,192	-0,062818	22,360000	52,700000
2,608862	102,528265	62,869	-0,064248	22,360000	52,700000
2,602351	99,278256	63,554	-0,065570	22,360000	52,700000
2,595869	95,701925	64,216	-0,067026	22,360000	52,700000
2,589366	91,931242	64,872	-0,068561	22,360000	52,700000
2,582908	88,746017	65,543	-0,069857	22,360000	52,700000
2,576403	85,690360	66,216	-0,071101	22,360000	52,700000
2,569877	82,439151	66,900	-0,072424	22,360000	52,700000
2,563401	79,123157	67,568	-0,073773	22,370000	52,715000
2,556864	76,588174	68,223	-0,074805	22,370000	52,715000
2,550373	73,401749	68,874	-0,076102	22,370000	52,715000
2,543886	70,996334	69,559	-0,077081	22,370000	52,715000
2,537345	66,250288	70,220	-0,079013	22,360000	52,700000
2,530884	63,584536	70,894	-0,080098	22,360000	52,700000
2,524415	60,203758	71,574	-0,081474	22,370000	52,715000
2,517920	58,200246	72,244	-0,082289	22,370000	52,715000
2,511422	54,223213	72,924	-0,083908	22,370000	52,715000
2,504939	50,386546	73,578	-0,085469	22,370000	52,715000
2,498388	48,045915	74,232	-0,086422	22,370000	52,715000
2,491851	45,510932	74,902	-0,087454	22,370000	52,715000
2,485416	42,715612	75,570	-0,088591	22,370000	52,700000
2,478905	38,553824	76,226	-0,090285	22,370000	52,700000
2,472397	36,669082	76,924	-0,091052	22,370000	52,700000
2,465884	33,938546	77,618	-0,092164	22,360000	52,685000
2,459420	31,208010	78,300	-0,093275	22,360000	52,685000
2,452940	28,281922	78,975	-0,094466	22,360000	52,685000
2,446435	26,266412	79,629	-0,095286	22,360000	52,700000
2,439959	23,796213	80,329	-0,096292	22,360000	52,700000
2,433365	21,651134	81,003	-0,097165	22,360000	52,700000
2,426948	18,854615	81,660	-0,098303	22,360000	52,700000
2,420362	17,359778	82,322	-0,098911	22,360000	52,700000
2,413924	16,253647	82,984	-0,099361	22,360000	52,700000
2,407425	13,653879	83,662	-0,100419	22,360000	52,710000
2,400889	10,858559	84,333	-0,101557	22,360000	52,710000
2,394454	10,142333	85,010	-0,101849	22,360000	52,710000
2,387920	8,582713	85,679	-0,102483	22,360000	52,710000
2,381373	5,656624	86,381	-0,103674	22,360000	52,710000
2,374993	4,291356	87,078	-0,104230	22,360000	52,710000
2,368382	2,665752	87,731	-0,104892	22,360000	52,710000
2,361901	1,106131	88,411	-0,105526	22,360000	52,710000
2,355426	-0,260337	89,091	-0,106083	22,360000	52,710000
2,348983	-1,624405	89,742	-0,106638	22,360000	52,740000
2,342440	-3,705899	90,426	-0,107485	22,360000	52,740000
2,335932	-4,290157	91,105	-0,107723	22,360000	52,740000
2,329486	-5,980546	91,776	-0,108411	22,360000	52,740000
2,322918	-6,955908	92,470	-0,108808	22,360000	52,740000
2,316432	-8,711081	93,153	-0,109522	22,360000	52,740000
2,309909	-9,946781	93,806	-0,110025	22,370000	52,715000
2,303388	-10,986928	94,501	-0,110448	22,370000	52,715000
2,296942	-13,262774	95,191	-0,111375	22,370000	52,715000
2,290434	-13,782248	95,859	-0,111586	22,360000	52,685000
2,283906	-14,953163	96,547	-0,112062	22,360000	52,685000
2,277418	-16,058095	97,246	-0,112512	22,360000	52,685000
2,270927	-18,138389	97,933	-0,113359	22,360000	52,725000
2,264420	-15,212300	98,598	-0,112168	22,360000	52,725000
2,257898	-11,962291	99,293	-0,110845	22,360000	52,725000
2,251419	-9,556876	99,980	-0,109866	22,370000	52,715000
2,244980	-7,541366	100,633	-0,109046	22,370000	52,715000
2,238439	-4,810830	101,331	-0,107935	22,370000	52,715000
2,231932	-4,029820	102,028	-0,107617	22,360000	52,700000
2,225421	-2,665752	102,730	-0,107062	22,360000	52,700000
2,218895	-0,064784	103,399	-0,106003	22,360000	52,700000
2,212433	0,000000	104,079	-0,105977	22,360000	52,700000
2,205913	0,000000	104,770	-0,105977	22,360000	52,700000
2,199417	-0,909379	105,450	-0,106347	22,360000	52,700000
2,192920	-0,129568	106,146	-0,106029	22,370000	52,700000
2,186476	-0,454689	106,852	-0,106162	22,370000	52,700000
2,179882	-0,194353	107,554	-0,106056	22,370000	52,700000
2,173391	-0,194353	108,237	-0,106056	22,370000	52,700000
2,166897	-0,584258	108,944	-0,106214	22,370000	52,700000
2,160410	-0,260337	109,646	-0,106083	22,360000	52,700000
2,153940	-0,194353	110,334	-0,106056	22,360000	52,700000
2,147362	-0,519474	111,000	-0,106188	22,360000	52,700000
2,140911	-0,650242	111,652	-0,106241	22,360000	52,700000
2,134415	-0,129568	112,347	-0,106029	22,360000	52,700000
2,127906	-0,715026	113,011	-0,106268	22,360000	52,700000
2,121406	-0,715026	113,699	-0,106268	22,360000	52,700000
2,119884	-0,323921	113,851	-0,106108	22,360000	52,700000