Folder: Nanoindentation_Analysis/Nanoindentation Datenauswertung/data/PDMS (part 5)

File: EM-PDMS-50-10-50-0,5um-5
Quasi static measurement routine
Tip parameters (shape,radius, material...)
15.08.2022

Piezo position[nm]	MEMS displ.[nm]	Time[ms]	Cap [pf]	Temp [°C]	Rh [%]
eoh
2,660000	0,000000	0,214	-0,106108	22,370000	52,730000
2,666549	-0,130768	0,872	-0,106162	22,370000	52,730000
2,673086	0,323921	1,524	-0,105977	22,370000	52,715000
2,679485	0,129568	2,185	-0,106056	22,370000	52,715000
2,686017	-0,520673	2,842	-0,106320	22,370000	52,715000
2,692534	0,000000	3,497	-0,106108	22,360000	52,700000
2,698974	-0,130768	4,151	-0,106162	22,360000	52,700000
2,705462	-0,326321	4,805	-0,106241	22,360000	52,700000
2,711973	-0,195552	5,458	-0,106188	22,360000	52,710000
2,718541	-0,326321	6,111	-0,106241	22,360000	52,710000
2,725062	-0,391105	6,763	-0,106268	22,360000	52,710000
2,731512	0,129568	7,434	-0,106056	22,360000	52,710000
2,738016	-0,130768	8,091	-0,106162	22,360000	52,710000
2,744476	0,000000	8,751	-0,106108	22,360000	52,710000
2,751060	0,129568	9,405	-0,106056	22,370000	52,715000
2,757465	-0,326321	10,056	-0,106241	22,370000	52,715000
2,764000	-0,260337	10,709	-0,106214	22,370000	52,715000
2,770471	-0,260337	11,364	-0,106214	22,370000	52,715000
2,776992	0,063585	12,017	-0,106083	22,370000	52,715000
2,783509	-0,260337	12,670	-0,106214	22,370000	52,715000
2,789990	-0,391105	13,323	-0,106268	22,370000	52,740000
2,796480	-1,041347	13,983	-0,106532	22,370000	52,740000
2,803032	-0,195552	14,643	-0,106188	22,370000	52,740000
2,809544	-0,326321	15,299	-0,106241	22,370000	52,740000
2,816032	0,000000	15,952	-0,106108	22,370000	52,740000
2,822498	-0,130768	16,604	-0,106162	22,370000	52,740000
2,829013	-2,211062	17,256	-0,107008	22,370000	52,740000
2,835550	-0,455889	17,909	-0,106294	22,370000	52,755000
2,841922	0,649042	18,563	-0,105844	22,370000	52,755000
2,848428	1,364068	19,216	-0,105553	22,370000	52,755000
2,855001	2,599768	19,867	-0,105050	22,370000	52,755000
2,861505	2,989673	20,524	-0,104892	22,370000	52,755000
2,867987	3,119241	21,179	-0,104839	22,370000	52,755000
2,874492	4,875614	21,836	-0,104124	22,370000	52,730000
2,881047	5,200735	22,501	-0,103992	22,370000	52,730000
2,887521	6,045330	23,155	-0,103648	22,370000	52,730000
2,894003	6,630787	23,810	-0,103410	22,370000	52,730000
2,900507	7,541366	24,467	-0,103039	22,370000	52,730000
2,906993	9,036202	25,123	-0,102431	22,370000	52,730000
2,913516	9,361323	25,776	-0,102298	22,360000	52,725000
2,920010	10,532239	26,429	-0,101822	22,360000	52,725000
2,926491	11,637170	27,084	-0,101372	22,360000	52,725000
2,932996	13,002438	27,743	-0,100816	22,370000	52,730000
2,939486	13,652680	28,413	-0,100552	22,370000	52,730000
2,945997	14,692827	29,073	-0,100128	22,370000	52,730000
2,952546	14,562059	29,731	-0,100182	22,370000	52,755000
2,959014	15,278284	30,392	-0,099890	22,370000	52,755000
2,965470	15,862542	31,061	-0,099652	22,370000	52,755000
2,971997	17,163026	31,717	-0,099123	22,360000	52,710000
2,978476	17,163026	32,369	-0,099123	22,360000	52,710000
2,985002	18,008820	33,022	-0,098779	22,360000	52,710000
2,991516	18,918199	33,679	-0,098409	22,360000	52,710000
2,997996	18,659062	34,333	-0,098514	22,360000	52,710000
3,004516	18,723846	34,999	-0,098488	22,360000	52,710000
3,011015	18,982983	35,653	-0,098382	22,370000	52,740000
3,017435	19,309304	36,326	-0,098250	22,370000	52,740000
3,023980	20,414235	36,981	-0,097800	22,370000	52,740000
3,030469	20,414235	37,635	-0,097800	22,370000	52,730000
3,036997	20,479020	38,294	-0,097773	22,370000	52,730000
3,043469	21,714719	38,972	-0,097271	22,370000	52,730000
3,049999	22,754866	39,629	-0,096847	22,360000	52,700000
3,056482	23,014003	40,306	-0,096742	22,360000	52,700000
3,063002	23,730229	40,966	-0,096450	22,360000	52,700000
3,069414	25,225065	41,628	-0,095842	22,370000	52,740000
3,075950	25,875307	42,305	-0,095577	22,370000	52,740000
3,082495	26,329997	42,967	-0,095392	22,370000	52,740000
3,088944	26,069660	43,630	-0,095498	22,370000	52,740000
3,095529	27,630480	44,292	-0,094863	22,370000	52,740000
3,102015	28,215938	44,948	-0,094625	22,370000	52,740000
3,108466	29,191301	45,600	-0,094228	22,370000	52,715000
3,115022	30,035895	46,254	-0,093884	22,370000	52,715000
3,121467	31,271595	46,917	-0,093381	22,370000	52,715000
3,127964	33,091552	47,569	-0,092640	22,360000	52,725000
3,134490	34,002131	48,236	-0,092270	22,360000	52,725000
3,140942	34,781941	48,909	-0,091952	22,360000	52,725000
3,147451	35,367399	49,563	-0,091714	22,370000	52,730000
3,153970	37,382908	50,244	-0,090894	22,370000	52,730000
3,159984	37,512477	50,896	-0,090841	22,370000	52,730000
3,159982	37,512477	51,573	-0,090841	22,370000	52,730000
3,159950	36,603098	52,237	-0,091211	22,370000	52,730000
3,159927	36,797451	52,899	-0,091132	22,370000	52,730000
3,159971	36,342761	53,554	-0,091317	22,370000	52,730000
3,159973	36,147209	54,205	-0,091396	22,370000	52,730000
3,160021	36,213193	54,864	-0,091370	22,370000	52,730000
3,159934	35,236630	55,533	-0,091767	22,370000	52,730000
3,159971	34,912709	56,206	-0,091899	22,370000	52,730000
3,159985	34,002131	56,859	-0,092270	22,370000	52,730000
3,159948	34,781941	57,527	-0,091952	22,370000	52,740000
3,160013	34,912709	58,199	-0,091899	22,370000	52,740000
3,160014	35,171846	58,851	-0,091793	22,370000	52,740000
3,159950	32,376526	59,525	-0,092931	22,370000	52,740000
3,159959	31,791068	60,205	-0,093169	22,370000	52,740000
3,159982	31,921837	60,857	-0,093116	22,370000	52,740000
3,155487	30,815706	61,511	-0,093566	22,360000	52,740000
3,148994	28,149954	62,167	-0,094651	22,360000	52,740000
3,142445	26,525549	62,825	-0,095313	22,360000	52,740000
3,135952	24,704392	63,520	-0,096054	22,370000	52,700000
3,129464	22,624098	64,218	-0,096900	22,370000	52,700000
3,123009	22,429745	64,873	-0,096979	22,370000	52,700000
3,116522	19,958346	65,550	-0,097985	22,370000	52,700000
3,109925	18,853415	66,227	-0,098435	22,370000	52,700000
3,103479	17,813268	66,907	-0,098858	22,370000	52,700000
3,096949	16,058095	67,559	-0,099573	22,360000	52,740000
3,090488	15,017948	68,225	-0,099996	22,360000	52,740000
3,083970	14,953163	68,901	-0,100022	22,360000	52,740000
3,077482	12,871670	69,562	-0,100870	22,370000	52,715000
3,070982	11,766738	70,226	-0,101319	22,370000	52,715000
3,064458	10,661807	70,877	-0,101769	22,370000	52,715000
3,057969	10,141134	71,544	-0,101981	22,360000	52,725000
3,051500	9,100987	72,205	-0,102404	22,360000	52,725000
3,044994	8,060840	72,861	-0,102828	22,360000	52,725000
3,038470	7,541366	73,543	-0,103039	22,370000	52,730000
3,032011	6,501219	74,224	-0,103462	22,370000	52,730000
3,025503	6,045330	74,878	-0,103648	22,370000	52,730000
3,018941	5,005183	75,534	-0,104071	22,370000	52,715000
3,012403	4,290157	76,218	-0,104362	22,370000	52,715000
3,006005	4,615278	76,893	-0,104230	22,370000	52,715000
2,999434	3,639915	77,576	-0,104627	22,370000	52,715000
2,992984	2,079094	78,263	-0,105262	22,370000	52,715000
2,986467	1,819957	78,939	-0,105368	22,370000	52,715000
2,979989	1,234500	79,610	-0,105606	22,360000	52,710000
2,973511	0,519474	80,291	-0,105897	22,360000	52,710000
2,967019	-0,065984	80,989	-0,106135	22,360000	52,710000
2,960547	-0,130768	81,646	-0,106162	22,370000	52,700000
2,953993	-1,885941	82,328	-0,106876	22,370000	52,700000
2,947491	-1,300484	82,989	-0,106638	22,370000	52,700000
2,941019	-1,691589	83,649	-0,106797	22,370000	52,715000
2,934484	-2,536183	84,338	-0,107141	22,370000	52,715000
2,928005	-2,016710	84,993	-0,106929	22,370000	52,715000
2,921509	-2,211062	85,655	-0,107008	22,360000	52,725000
2,914964	-2,081494	86,340	-0,106956	22,360000	52,725000
2,908431	-1,756373	87,018	-0,106823	22,360000	52,725000
2,901968	-2,600967	87,684	-0,107167	22,370000	52,730000
2,895531	-2,146278	88,337	-0,106982	22,370000	52,730000
2,888968	-2,600967	88,990	-0,107167	22,370000	52,730000
2,882523	-2,796520	89,646	-0,107247	22,370000	52,715000
2,876001	-3,251209	90,314	-0,107432	22,370000	52,715000
2,869464	-2,796520	90,989	-0,107247	22,370000	52,715000
2,862963	-3,315994	91,647	-0,107458	22,370000	52,730000
2,856481	-3,315994	92,299	-0,107458	22,370000	52,730000
2,849954	-2,796520	92,990	-0,107247	22,370000	52,730000
2,843483	-4,097004	93,646	-0,107776	22,360000	52,740000
2,837020	-3,641114	94,328	-0,107590	22,360000	52,740000
2,830494	-4,226572	95,015	-0,107829	22,360000	52,740000
2,824029	-4,356141	95,694	-0,107881	22,370000	52,700000
2,817482	-4,876814	96,357	-0,108093	22,370000	52,700000
2,810989	-5,007582	97,047	-0,108146	22,370000	52,700000
2,804535	-5,852177	97,697	-0,108490	22,370000	52,700000
2,798016	-5,007582	98,386	-0,108146	22,370000	52,700000
2,791458	-5,591840	99,057	-0,108384	22,370000	52,700000
2,784976	-3,705899	99,742	-0,107617	22,370000	52,730000
2,778490	-2,926088	100,401	-0,107299	22,370000	52,730000
2,771955	0,129568	101,061	-0,106056	22,370000	52,730000
2,765529	0,063585	101,752	-0,106083	22,370000	52,730000
2,759002	0,063585	102,430	-0,106083	22,370000	52,730000
2,752525	-0,326321	103,107	-0,106241	22,370000	52,730000
2,746017	-0,065984	103,796	-0,106135	22,360000	52,710000
2,739522	-0,326321	104,464	-0,106241	22,360000	52,710000
2,733009	-0,326321	105,136	-0,106241	22,360000	52,710000
2,726494	-0,976562	105,842	-0,106506	22,360000	52,710000
2,719983	-0,326321	106,509	-0,106241	22,360000	52,710000
2,713480	0,259137	107,181	-0,106003	22,360000	52,710000
2,706997	-0,326321	107,866	-0,106241	22,370000	52,715000
2,700498	-0,260337	108,564	-0,106214	22,370000	52,715000
2,694039	-0,195552	109,231	-0,106188	22,370000	52,715000
2,687500	0,063585	109,916	-0,106083	22,360000	52,710000
2,681061	-0,260337	110,571	-0,106214	22,360000	52,710000
2,674540	0,000000	111,245	-0,106108	22,360000	52,710000
2,667980	0,063585	111,927	-0,106083	22,360000	52,710000
2,661477	-0,260337	112,613	-0,106214	22,360000	52,710000
2,660006	0,129568	112,764	-0,106056	22,360000	52,710000

File: EM-PDMS-50-10-50-0,8um
Quasi static measurement routine
Tip parameters (shape,radius, material...)
12.08.2022

Piezo position[nm]	MEMS displ.[nm]	Time[ms]	Cap [pf]	Temp [°C]	Rh [%]
eoh
1,943886	-0,910579	0,221	-0,106585	22,360000	47,335000
1,954280	-0,781010	0,876	-0,106532	22,340000	47,335000
1,964628	-0,910579	1,542	-0,106585	22,340000	47,335000
1,975089	-0,455889	2,196	-0,106400	22,340000	47,335000
1,985462	-0,585458	2,851	-0,106453	22,340000	47,335000
1,995848	-0,455889	3,507	-0,106400	22,340000	47,335000
2,006181	-0,195552	4,158	-0,106294	22,340000	47,335000
2,016720	-0,910579	4,812	-0,106585	22,340000	47,335000
2,027002	-0,650242	5,469	-0,106479	22,340000	47,335000
2,037403	-0,781010	6,120	-0,106532	22,340000	47,335000
2,047855	-0,130768	6,771	-0,106268	22,340000	47,320000
2,058264	0,129568	7,424	-0,106162	22,340000	47,320000
2,068652	-0,130768	8,078	-0,106268	22,340000	47,320000
2,079053	0,064784	8,732	-0,106188	22,350000	47,360000
2,089472	0,194353	9,387	-0,106135	22,350000	47,360000
2,099826	-0,325121	10,041	-0,106347	22,350000	47,360000
2,110265	-0,260337	10,696	-0,106320	22,350000	47,375000
2,120650	-0,455889	11,349	-0,106400	22,350000	47,375000
2,131053	-0,389905	12,007	-0,106373	22,350000	47,375000
2,141437	-0,065984	12,660	-0,106241	22,350000	47,375000
2,151890	-0,389905	13,312	-0,106373	22,350000	47,375000
2,162255	0,129568	13,966	-0,106162	22,350000	47,375000
2,172643	-0,195552	14,619	-0,106294	22,350000	47,375000
2,183088	-0,585458	15,276	-0,106453	22,340000	47,350000
2,193475	-0,585458	15,929	-0,106453	22,340000	47,350000
2,203889	0,194353	16,581	-0,106135	22,340000	47,350000
2,214234	-0,195552	17,239	-0,106294	22,340000	47,320000
2,224662	-2,731736	17,902	-0,107326	22,340000	47,320000
2,235125	0,000000	18,557	-0,106214	22,340000	47,320000
2,245416	1,819957	19,211	-0,105474	22,340000	47,320000
2,255842	4,681262	19,865	-0,104309	22,340000	47,320000
2,266272	7,086677	20,520	-0,103330	22,340000	47,320000
2,276614	10,466255	21,175	-0,101955	22,340000	47,350000
2,287047	12,742101	21,830	-0,101028	22,340000	47,350000
2,297441	16,513984	22,482	-0,099493	22,340000	47,350000
2,307850	19,374088	23,141	-0,098329	22,340000	47,350000
2,318289	22,169408	23,805	-0,097191	22,340000	47,350000
2,328632	26,460765	24,459	-0,095445	22,340000	47,350000
2,339027	29,516422	25,132	-0,094201	22,350000	47,350000
2,349498	33,872562	25,785	-0,092428	22,350000	47,350000
2,359875	36,407546	26,438	-0,091396	22,350000	47,350000
2,370186	39,398418	27,100	-0,090179	22,350000	47,350000
2,380650	41,349144	27,769	-0,089385	22,350000	47,350000
2,391055	43,624990	28,462	-0,088459	22,350000	47,350000
2,401474	46,030405	29,119	-0,087480	22,350000	47,350000
2,411825	48,045915	29,822	-0,086660	22,350000	47,350000
2,422279	50,451330	30,477	-0,085681	22,350000	47,350000
2,432667	54,741487	31,133	-0,083935	22,350000	47,350000
2,443019	58,707722	31,838	-0,082320	22,350000	47,350000
2,453452	63,324200	32,510	-0,080441	22,350000	47,350000
2,463881	67,679140	33,166	-0,078669	22,350000	47,335000
2,474260	71,580592	33,819	-0,077081	22,350000	47,335000
2,484647	75,936732	34,473	-0,075308	22,350000	47,335000
2,495072	79,511863	35,133	-0,073853	22,350000	47,350000
2,505462	84,063556	35,787	-0,072000	22,350000	47,350000
2,515885	88,614049	36,442	-0,070148	22,350000	47,350000
2,526286	92,385932	37,099	-0,068613	22,360000	47,350000
2,536648	97,001209	37,765	-0,066735	22,360000	47,350000
2,547044	102,528265	38,425	-0,064485	22,360000	47,350000
2,557458	105,648706	39,087	-0,063215	22,350000	47,335000
2,567852	111,564468	39,743	-0,060808	22,350000	47,335000
2,578206	115,530703	40,398	-0,059193	22,350000	47,335000
2,588646	119,432154	41,051	-0,057605	22,340000	47,335000
2,599064	124,242984	41,726	-0,055647	22,340000	47,335000
2,609439	128,013667	42,377	-0,054113	22,340000	47,335000
2,619831	133,735076	43,033	-0,051784	22,360000	47,335000
2,630233	137,700111	43,689	-0,050170	22,360000	47,335000
2,640701	141,991468	44,340	-0,048424	22,360000	47,335000
2,651056	146,997850	45,013	-0,046386	22,350000	47,335000
2,661426	151,548343	45,683	-0,044534	22,350000	47,335000
2,671857	155,970468	46,337	-0,042734	22,350000	47,335000
2,682183	160,260625	46,993	-0,040988	22,350000	47,350000
2,692696	164,097292	47,646	-0,039427	22,350000	47,350000
2,703104	169,037690	48,301	-0,037416	22,350000	47,350000
2,713418	173,654167	48,967	-0,035537	22,350000	47,350000
2,723888	177,554419	49,634	-0,033950	22,350000	47,350000
2,734246	182,496017	50,290	-0,031938	22,350000	47,350000
2,743811	186,201916	50,943	-0,030430	22,350000	47,320000
2,743830	185,161769	51,597	-0,030854	22,350000	47,320000
2,743890	184,446743	52,256	-0,031145	22,350000	47,320000
2,743861	184,511527	52,909	-0,031118	22,350000	47,320000
2,743802	183,016690	53,567	-0,031727	22,350000	47,320000
2,743841	182,690370	54,232	-0,031859	22,350000	47,320000
2,743874	181,976543	54,889	-0,032150	22,350000	47,350000
2,743789	181,195533	55,540	-0,032468	22,350000	47,350000
2,743852	181,391086	56,198	-0,032388	22,350000	47,350000
2,743866	180,870412	56,864	-0,032600	22,350000	47,335000
2,743797	180,480507	57,520	-0,032759	22,350000	47,335000
2,743852	180,155386	58,180	-0,032891	22,350000	47,335000
2,743856	180,284955	58,839	-0,032838	22,350000	47,335000
2,743882	179,700697	59,496	-0,033076	22,350000	47,335000
2,743856	180,415723	60,148	-0,032785	22,350000	47,335000
2,743875	179,895050	60,802	-0,032997	22,350000	47,350000
2,736652	174,629530	61,459	-0,035140	22,350000	47,350000
2,726249	170,338174	62,118	-0,036887	22,350000	47,350000
2,715847	164,746334	62,771	-0,039163	22,350000	47,360000
2,705419	159,026125	63,432	-0,041491	22,350000	47,360000
2,695038	153,499069	64,097	-0,043740	22,350000	47,360000
2,684650	149,142928	64,755	-0,045513	22,350000	47,360000
2,674292	143,617072	65,414	-0,047762	22,350000	47,360000
2,663827	138,741458	66,068	-0,049747	22,350000	47,360000
2,653453	133,539523	66,730	-0,051864	22,340000	47,350000
2,643023	128,728693	67,396	-0,053822	22,340000	47,350000
2,632709	123,202837	68,048	-0,056071	22,340000	47,350000
2,622284	118,781912	68,699	-0,057870	22,340000	47,335000
2,611889	112,929735	69,351	-0,060252	22,340000	47,335000
2,601467	108,054121	70,016	-0,062236	22,340000	47,335000
2,591053	102,137160	70,677	-0,064645	22,340000	47,335000
2,580644	98,107340	71,337	-0,066285	22,340000	47,335000
2,570258	92,775837	71,997	-0,068455	22,340000	47,335000
2,559827	88,159360	72,653	-0,070333	22,340000	47,335000
2,549407	82,893840	73,317	-0,072477	22,340000	47,335000
2,539065	78,798036	73,978	-0,074144	22,340000	47,335000
2,528665	73,076628	74,632	-0,076472	22,350000	47,335000
2,518212	68,785271	75,297	-0,078219	22,350000	47,335000
2,507894	62,673958	75,952	-0,080706	22,350000	47,335000
2,497453	59,618301	76,606	-0,081950	22,350000	47,335000
2,487089	53,961677	77,267	-0,084252	22,340000	47,350000
2,476673	50,321762	77,919	-0,085733	22,340000	47,350000
2,466267	45,184611	78,587	-0,087824	22,340000	47,350000
2,455838	40,503350	79,244	-0,089729	22,340000	47,350000
2,445488	36,667882	79,898	-0,091291	22,340000	47,350000
2,435032	33,026768	80,557	-0,092772	22,340000	47,350000
2,424652	29,516422	81,217	-0,094201	22,340000	47,360000
2,414253	25,225065	81,886	-0,095948	22,340000	47,360000
2,403887	21,779503	82,541	-0,097350	22,340000	47,360000
2,393415	19,178536	83,197	-0,098409	22,350000	47,360000
2,383019	16,122879	83,859	-0,099652	22,350000	47,360000
2,372675	14,172153	84,525	-0,100446	22,350000	47,360000
2,362281	11,637170	85,180	-0,101478	22,350000	47,360000
2,351911	10,207118	85,863	-0,102060	22,350000	47,360000
2,341445	8,173612	86,518	-0,102888	22,350000	47,360000
2,331054	5,786193	87,177	-0,103859	22,340000	47,350000
2,320666	3,900251	87,845	-0,104627	22,340000	47,350000
2,310256	0,389905	88,512	-0,106056	22,340000	47,350000
2,299847	-1,950726	89,181	-0,107008	22,340000	47,350000
2,289467	-3,705899	89,878	-0,107723	22,340000	47,350000
2,279054	-5,981745	90,560	-0,108649	22,340000	47,350000
2,268737	-7,802902	91,215	-0,109390	22,350000	47,335000
2,258259	-10,208317	91,869	-0,110369	22,350000	47,335000
2,247868	-11,898706	92,562	-0,111057	22,350000	47,335000
2,237476	-12,418180	93,215	-0,111269	22,350000	47,335000
2,227043	-13,003638	93,880	-0,111507	22,350000	47,335000
2,216617	-13,653879	94,550	-0,111771	22,350000	47,335000
2,206274	-14,498474	95,228	-0,112115	22,350000	47,335000
2,195897	-16,384415	95,902	-0,112883	22,350000	47,335000
2,185501	-17,814468	96,561	-0,113465	22,350000	47,335000
2,175015	0,064784	97,216	-0,106188	22,350000	47,320000
2,164646	-0,650242	97,867	-0,106479	22,350000	47,320000
2,154266	-0,455889	98,537	-0,106400	22,350000	47,320000
2,143920	-0,389905	99,206	-0,106373	22,350000	47,320000
2,133494	-0,455889	99,871	-0,106400	22,350000	47,320000
2,123052	-0,130768	100,552	-0,106268	22,350000	47,320000
2,112648	-0,455889	101,209	-0,106400	22,340000	47,320000
2,102268	-0,389905	101,863	-0,106373	22,340000	47,320000
2,091873	-0,585458	102,528	-0,106453	22,340000	47,320000
2,081533	0,000000	103,197	-0,106214	22,340000	47,320000
2,071039	-0,195552	103,869	-0,106294	22,340000	47,320000
2,060627	-0,130768	104,529	-0,106268	22,340000	47,320000
2,050291	0,454689	105,183	-0,106029	22,340000	47,335000
2,039843	-0,130768	105,848	-0,106268	22,340000	47,335000
2,029416	-0,130768	106,519	-0,106268	22,340000	47,335000
2,019098	-0,065984	107,258	-0,106241	22,350000	47,360000
2,008684	-0,455889	107,942	-0,106400	22,350000	47,360000
1,998273	-0,520673	108,610	-0,106426	22,350000	47,360000
1,987880	0,064784	109,274	-0,106188	22,350000	47,360000
1,977494	-0,195552	109,926	-0,106294	22,350000	47,360000
1,967070	0,194353	110,584	-0,106135	22,350000	47,360000
1,956638	-0,845794	111,243	-0,106559	22,350000	47,360000
1,946263	-0,716226	111,897	-0,106506	22,350000	47,360000
1,943898	-0,781010	112,047	-0,106532	22,350000	47,360000