Folder: Nanoindentation_Analysis/Nanoindentation Datenauswertung/data/PDMS

File: AR-PDMS-60-10-60-1,2um-3x3-1
Quasi static measurement routine
Tip parameters (shape,radius, material...)
24.08.2022

Piezo position[nm]	MEMS displ.[nm]	Time[ms]	Cap [pf]	Temp [°C]	Rh [%]
eoh

X-Pos [um]	Y-Pos [um]
0,000000	0,000000

POC
3,277899
2,591800	-0,107962	0,852	-0,135497	22,630000	51,480000
2,607766	0,017176	1,652	-0,135447	22,630000	51,480000
2,623755	-0,082198	2,453	-0,135487	22,630000	51,480000
2,639811	-0,249048	3,255	-0,135553	22,640000	51,520000
2,655741	-0,057661	4,059	-0,135477	22,640000	51,520000
2,671759	-0,198748	4,860	-0,135533	22,640000	51,520000
2,687780	-0,215923	5,661	-0,135540	22,640000	51,505000
2,703846	-0,390134	6,461	-0,135609	22,640000	51,505000
2,719786	-0,390134	7,264	-0,135609	22,630000	51,490000
2,735828	-0,008588	8,066	-0,135458	22,630000	51,490000
2,751812	-0,290760	8,870	-0,135570	22,630000	51,490000
2,767774	-0,298121	9,671	-0,135573	22,650000	51,495000
2,783737	-0,398722	10,476	-0,135613	22,650000	51,495000
2,799756	-0,323885	11,277	-0,135583	22,650000	51,495000
2,815765	-0,332473	12,077	-0,135586	22,650000	51,495000
2,831791	-0,581521	12,880	-0,135686	22,650000	51,495000
2,847729	-0,257636	13,682	-0,135557	22,640000	51,520000
2,863712	-0,490735	14,484	-0,135649	22,640000	51,520000
2,879727	-0,456383	15,286	-0,135636	22,640000	51,505000
2,895767	-0,490735	16,089	-0,135649	22,640000	51,505000
2,911810	-0,522633	16,892	-0,135662	22,640000	51,505000
2,927772	-0,506684	17,695	-0,135656	22,640000	51,505000
2,943766	-0,531221	18,499	-0,135666	22,640000	51,505000
2,959727	-0,938531	19,299	-0,135828	22,640000	51,505000
2,975751	-0,922582	20,101	-0,135821	22,640000	51,505000
2,991749	-0,813393	20,904	-0,135778	22,640000	51,505000
3,007785	-1,063668	21,709	-0,135877	22,640000	51,520000
3,023733	-1,030543	22,511	-0,135864	22,640000	51,520000
3,039731	-1,055080	23,312	-0,135874	22,640000	51,520000
3,055785	-1,178991	24,114	-0,135923	22,640000	51,520000
3,071749	-1,229291	24,914	-0,135943	22,640000	51,520000
3,087688	-1,462390	25,714	-0,136036	22,640000	51,520000
3,103748	-66,634442	26,516	-0,161975	22,640000	51,520000
3,119785	-62,503681	27,320	-0,160331	22,640000	51,490000
3,135780	-57,749686	28,123	-0,158438	22,640000	51,490000
3,151722	-50,968956	28,928	-0,155740	22,640000	51,490000
3,167684	-45,059281	29,729	-0,153388	22,640000	51,490000
3,183745	-38,950858	30,535	-0,150957	22,640000	51,490000
3,199704	-32,494013	31,338	-0,148387	22,640000	51,480000
3,215716	-25,912031	32,139	-0,145767	22,640000	51,480000
3,231737	-19,637985	32,939	-0,143270	22,640000	51,480000
3,247711	-12,997114	33,742	-0,140627	22,630000	51,520000
3,263685	-5,534263	34,543	-0,137657	22,630000	51,520000
3,279780	3,016793	35,346	-0,134253	22,640000	51,480000
3,295697	8,876168	36,147	-0,131921	22,640000	51,480000
3,311661	16,612604	36,947	-0,128842	22,640000	51,480000
3,327701	24,250893	37,749	-0,125802	22,640000	51,490000
3,343670	32,693988	38,549	-0,122442	22,640000	51,490000
3,359649	9,366903	39,350	-0,131726	22,630000	51,505000
3,375682	15,341601	40,152	-0,129348	22,630000	51,505000
3,391728	23,826407	40,953	-0,125971	22,630000	51,505000
3,407635	31,438933	41,755	-0,122941	22,630000	51,505000
3,423709	39,275970	42,558	-0,119822	22,630000	51,505000
3,439655	45,476405	43,360	-0,117354	22,640000	51,505000
3,455659	48,742246	44,163	-0,116055	22,640000	51,505000
3,471669	54,102299	44,963	-0,113921	22,640000	51,505000
3,487642	61,798249	45,765	-0,110858	22,640000	51,490000
3,503676	70,890340	46,568	-0,107240	22,640000	51,490000
3,519654	79,042674	47,369	-0,103995	22,640000	51,480000
3,535679	88,034165	48,171	-0,100417	22,640000	51,480000
3,551675	97,201093	48,972	-0,096768	22,640000	51,480000
3,567648	106,260060	49,775	-0,093163	22,640000	51,480000
3,583699	116,590030	50,578	-0,089051	22,640000	51,480000
3,599670	124,684703	51,382	-0,085830	22,640000	51,505000
3,615669	134,574238	52,184	-0,081894	22,640000	51,505000
3,631617	143,483531	52,986	-0,078348	22,640000	51,505000
3,647687	152,741245	53,788	-0,074663	22,630000	51,465000
3,663668	163,844123	54,592	-0,070244	22,630000	51,465000
3,679623	171,498361	55,393	-0,067198	22,640000	51,480000
3,695646	181,861456	56,197	-0,063073	22,640000	51,480000
3,711613	190,779336	56,998	-0,059524	22,640000	51,480000
3,727610	200,502022	57,800	-0,055654	22,640000	51,520000
3,743687	210,417321	58,602	-0,051708	22,640000	51,520000
3,759632	219,359738	59,403	-0,048149	22,650000	51,495000
3,775670	229,315523	60,206	-0,044187	22,650000	51,495000
3,777616	231,160686	61,010	-0,043452	22,650000	51,495000
3,777595	230,262641	61,812	-0,043810	22,630000	51,505000
3,777566	229,522858	62,613	-0,044104	22,630000	51,505000
3,777610	229,439433	63,414	-0,044137	22,640000	51,505000
3,777630	228,891037	64,216	-0,044355	22,640000	51,505000
3,777620	228,866500	65,017	-0,044365	22,640000	51,505000
3,777652	228,783076	65,819	-0,044398	22,640000	51,505000
3,777608	228,177018	66,622	-0,044640	22,640000	51,505000
3,777610	228,143893	67,426	-0,044653	22,650000	51,485000
3,777630	227,935331	68,227	-0,044736	22,650000	51,485000
3,777646	227,727995	69,030	-0,044818	22,650000	51,485000
3,777647	227,404110	69,830	-0,044947	22,640000	51,490000
3,771559	224,303893	70,632	-0,046181	22,640000	51,490000
3,755621	213,542076	71,434	-0,050464	22,630000	51,530000
3,739598	202,904169	72,235	-0,054698	22,630000	51,530000
3,723623	192,490774	73,039	-0,058843	22,630000	51,530000
3,707575	180,482491	73,843	-0,063622	22,630000	51,530000
3,691572	171,630859	74,646	-0,067145	22,630000	51,530000
3,675671	161,043253	75,449	-0,071359	22,640000	51,530000
3,659663	150,629858	76,249	-0,075503	22,640000	51,530000
3,643654	140,766086	77,050	-0,079429	22,640000	51,530000
3,627629	130,352691	77,851	-0,083574	22,640000	51,530000
3,611625	120,587066	78,653	-0,087460	22,640000	51,530000
3,595694	111,122016	79,455	-0,091228	22,630000	51,480000
3,579726	99,827752	80,257	-0,095723	22,630000	51,480000
3,563752	91,492619	81,060	-0,099040	22,640000	51,490000
3,547650	80,729576	81,862	-0,103324	22,640000	51,490000
3,531696	72,178520	82,664	-0,106727	22,640000	51,490000
3,515665	62,214147	83,468	-0,110693	22,640000	51,490000
3,499634	52,888957	84,269	-0,114404	22,640000	51,490000
3,483652	41,902628	85,073	-0,118777	22,640000	51,480000
3,467643	32,387278	85,876	-0,122564	22,640000	51,480000
3,451708	23,544235	86,679	-0,126083	22,640000	51,480000
3,435671	14,394482	87,480	-0,129725	22,630000	51,490000
3,419632	5,742825	88,282	-0,133168	22,630000	51,490000
3,403695	-3,822825	89,083	-0,136976	22,640000	51,455000
3,387724	-12,615568	89,887	-0,140475	22,640000	51,455000
3,371694	-22,113743	90,691	-0,144255	22,640000	51,455000
3,355697	-32,394639	91,491	-0,148347	22,630000	51,465000
3,339706	-40,331050	92,291	-0,151506	22,630000	51,465000
3,323686	-50,029199	93,094	-0,155366	22,640000	51,465000
3,307720	-57,625775	93,897	-0,158389	22,640000	51,465000
3,291782	-66,086045	94,698	-0,161756	22,640000	51,465000
3,275721	-75,709357	95,502	-0,165586	22,630000	51,505000
3,259711	-82,009167	96,306	-0,168094	22,630000	51,505000
3,243754	-90,850983	97,107	-0,171613	22,640000	51,490000
3,227701	-97,325004	97,909	-0,174189	22,640000	51,490000
3,211757	-102,054462	98,712	-0,176072	22,640000	51,490000
3,195695	-105,627012	99,515	-0,177494	22,630000	51,490000
3,179713	-110,339294	100,317	-0,179369	22,630000	51,490000
3,163753	-118,209455	101,119	-0,182501	22,640000	51,490000
[...]
3,478615	86,928785	81,142	-0,100979	22,630000	51,490000
3,462617	75,634520	81,943	-0,105474	22,640000	51,480000
3,446550	67,357049	82,745	-0,108768	22,640000	51,480000
3,430598	56,353545	83,546	-0,113147	22,640000	51,480000
3,414604	46,738821	84,349	-0,116974	22,630000	51,440000
3,398617	37,481107	85,151	-0,120659	22,630000	51,440000
3,382532	28,438089	85,953	-0,124258	22,640000	51,465000
3,366585	19,554560	86,755	-0,127793	22,640000	51,465000
3,350591	8,808692	87,560	-0,132070	22,640000	51,465000
3,334631	-0,515272	88,362	-0,135781	22,640000	51,440000
3,318572	-9,375491	89,164	-0,139308	22,640000	51,440000
3,302600	-17,909371	89,969	-0,142704	22,630000	51,480000
3,286628	-28,098255	90,773	-0,146759	22,630000	51,480000
3,270643	-37,232059	91,574	-0,150395	22,630000	51,480000
3,254624	-44,710859	92,379	-0,153371	22,630000	51,490000
3,238614	-53,952624	93,181	-0,157049	22,630000	51,490000
3,222670	-63,053304	93,984	-0,160671	22,630000	51,490000
3,206618	-71,646072	94,787	-0,164091	22,630000	51,490000
3,190677	-78,436617	95,588	-0,166794	22,630000	51,490000
3,174642	-86,871123	96,391	-0,170151	22,640000	51,465000
3,158641	-93,336556	97,194	-0,172724	22,640000	51,465000
3,142687	-98,506448	97,998	-0,174782	22,630000	51,465000
3,126685	-104,282398	98,799	-0,177081	22,630000	51,465000
3,110646	-107,556827	99,601	-0,178384	22,630000	51,465000
3,094662	-112,575819	100,402	-0,180381	22,630000	51,465000
3,078652	-119,622772	101,204	-0,183186	22,630000	51,465000
3,062652	-128,399566	102,006	-0,186679	22,640000	51,490000
3,046667	-134,424564	102,810	-0,189077	22,640000	51,490000
3,030631	-142,677499	103,613	-0,192362	22,640000	51,490000
3,014612	-149,101219	104,416	-0,194918	22,640000	51,490000
2,998648	-156,879368	105,220	-0,198014	22,640000	51,490000
2,982675	-164,542193	106,022	-0,201064	22,630000	51,455000
2,966664	-171,639447	106,823	-0,203889	22,630000	51,455000
2,950694	-179,460535	107,625	-0,207001	22,650000	51,495000
2,934668	-186,415476	108,429	-0,209770	22,650000	51,495000
2,918673	-194,584985	109,230	-0,213021	22,650000	51,495000
2,902657	-199,929089	110,030	-0,215148	22,650000	51,470000
2,886697	-206,668106	110,831	-0,217830	22,650000	51,470000
2,870674	-213,059929	111,634	-0,220374	22,650000	51,470000
2,854693	-214,588568	112,439	-0,220982	22,650000	51,470000
2,838681	-146,475787	113,241	-0,193874	22,650000	51,470000
2,822687	-140,258176	114,043	-0,191399	22,630000	51,455000
2,806686	-140,740323	114,845	-0,191591	22,630000	51,455000
2,790675	-141,123096	115,648	-0,191743	22,630000	51,465000
2,774710	-141,854291	116,449	-0,192034	22,630000	51,465000
2,758734	-137,283095	117,251	-0,190215	22,630000	51,465000
2,742728	-115,085928	118,053	-0,181380	22,630000	51,465000
2,726677	-1,380192	118,855	-0,136125	22,630000	51,465000
2,710680	-1,388780	119,658	-0,136129	22,630000	51,425000
2,694689	-1,122556	120,461	-0,136023	22,630000	51,425000
2,678666	-1,072256	121,264	-0,136003	22,630000	51,425000
2,662694	-1,313943	122,064	-0,136099	22,630000	51,480000
2,646723	-1,829214	122,867	-0,136304	22,630000	51,480000
2,630737	-1,056307	123,670	-0,135997	22,630000	51,480000
2,614682	-0,997419	124,470	-0,135973	22,630000	51,480000
2,598714	-0,872281	125,275	-0,135923	22,630000	51,480000
2,582677	-0,880869	126,076	-0,135927	22,640000	51,490000
2,566707	-0,790083	126,882	-0,135891	22,640000	51,490000
2,550702	-0,856332	127,682	-0,135917	22,640000	51,455000
2,534679	-0,831796	128,483	-0,135907	22,640000	51,455000
2,518719	-0,814620	129,285	-0,135900	22,640000	51,455000
2,502699	-0,499323	130,088	-0,135775	22,640000	51,440000
2,492744	-0,731195	130,589	-0,135867	22,640000	51,440000

File: AR-PDMS-60-10-60-1,2um-4x4-1
Quasi static measurement routine
Tip parameters (shape,radius, material...)
25.08.2022

Piezo position[nm]	MEMS displ.[nm]	Time[ms]	Cap [pf]	Temp [°C]	Rh [%]
eoh

X-Pos [um]	Y-Pos [um]
19,999520	19,998943

POC
3,159860
2,473773	-0,332473	0,868	-0,135272	17,490000	0,615000
2,489750	-0,307936	1,670	-0,135262	17,490000	0,615000
2,505780	-0,074837	2,472	-0,135169	17,490000	0,615000
2,521766	-0,083425	3,274	-0,135173	17,490000	0,615000
2,537817	-0,158262	4,079	-0,135203	17,490000	0,615000
2,553809	-0,565572	4,880	-0,135365	17,490000	0,615000
2,569747	-0,316524	5,681	-0,135266	17,490000	0,615000
2,585801	-0,407310	6,482	-0,135302	17,490000	0,615000
2,601823	-0,631821	7,286	-0,135391	17,490000	0,615000
2,617777	-0,316524	8,092	-0,135266	17,490000	0,615000
2,633737	-0,490735	8,895	-0,135335	17,490000	0,615000
2,649738	-0,574160	9,699	-0,135368	17,490000	0,615000
2,665733	-0,307936	10,502	-0,135262	17,490000	0,615000
2,681804	-0,607284	11,307	-0,135381	17,490000	0,615000
2,697799	-0,541035	12,108	-0,135355	17,490000	0,615000
2,713771	-0,574160	12,911	-0,135368	17,490000	0,615000
2,729792	-0,689483	13,713	-0,135414	17,490000	0,615000
2,745756	-0,490735	14,516	-0,135335	17,490000	0,615000
2,761841	-0,607284	15,318	-0,135381	17,490000	0,615000
2,777762	-0,590109	16,121	-0,135375	17,490000	0,615000
2,793772	-0,806032	16,924	-0,135460	17,490000	0,615000
2,809785	-0,748371	17,726	-0,135438	17,490000	0,615000
2,825743	-0,981470	18,528	-0,135530	17,490000	0,615000
2,841762	-0,847745	19,328	-0,135477	17,490000	0,615000
2,857731	-0,847745	20,129	-0,135477	17,490000	0,615000
2,873751	-0,889457	20,933	-0,135494	345,100000	0,000000
2,889735	-1,255055	21,736	-0,135639	345,100000	0,000000
2,905768	-0,964294	22,538	-0,135523	345,840000	0,000000
2,921736	-0,988831	23,341	-0,135533	345,840000	0,000000
2,937736	-0,814620	24,143	-0,135464	345,840000	0,000000
2,953689	-1,396141	24,945	-0,135695	345,440000	0,000000
2,969728	-1,803451	25,747	-0,135857	345,440000	0,000000
2,985771	-62,538032	26,549	-0,160030	345,440000	0,000000
3,001733	-56,071372	27,349	-0,157456	345,440000	0,000000
3,017696	-50,587410	28,153	-0,155273	345,440000	0,000000
3,033699	-47,595154	28,955	-0,154083	346,770000	0,000000
3,049692	-41,678117	29,757	-0,151728	346,770000	0,000000
3,065726	-35,884991	30,558	-0,149422	345,980000	0,000000
3,081775	-28,763201	31,360	-0,146587	345,980000	0,000000
3,097692	-22,297768	32,163	-0,144014	345,980000	0,000000
3,113775	-16,048259	32,966	-0,141527	345,980000	0,000000
3,129673	-9,682200	33,769	-0,138993	345,980000	0,000000
3,145680	-2,884295	34,569	-0,136288	346,770000	0,000000
3,161679	4,329509	35,369	-0,133417	346,770000	0,000000
3,177719	11,692986	36,170	-0,130486	346,770000	0,000000
3,193710	19,413474	36,971	-0,127413	345,440000	0,000000
3,209744	27,607520	37,772	-0,124152	345,440000	0,000000
3,225727	34,222627	38,574	-0,121519	346,350000	0,000000
3,241724	41,544392	39,374	-0,118605	346,350000	0,000000
3,257709	18,424643	40,174	-0,127807	346,350000	0,000000
3,273677	25,114587	40,978	-0,125144	346,350000	0,000000
3,289728	34,588224	41,780	-0,121374	346,350000	0,000000
3,305655	42,101376	42,582	-0,118383	346,110000	0,000000
3,321704	41,378769	43,384	-0,118671	346,110000	0,000000
3,337685	46,606323	44,187	-0,116590	346,110000	0,000000
3,353696	55,331590	44,989	-0,113118	346,110000	0,000000
3,369642	63,375962	45,790	-0,109916	346,110000	0,000000
3,385698	70,956590	46,590	-0,106899	346,110000	0,000000
3,401715	79,000962	47,394	-0,103697	346,110000	0,000000
3,417643	89,529680	48,197	-0,099507	346,110000	0,000000
3,433699	98,181336	48,999	-0,096063	344,860000	0,000000
3,449625	106,185223	49,799	-0,092878	344,860000	0,000000
3,465653	115,733698	50,601	-0,089078	345,980000	0,000000
3,481674	124,425840	51,404	-0,085618	345,980000	0,000000
3,497681	133,501983	52,206	-0,082006	345,980000	0,000000
3,513601	143,033282	53,009	-0,078212	345,980000	0,000000
3,529634	152,657820	53,810	-0,074382	345,980000	0,000000
3,545673	161,798985	54,610	-0,070744	345,980000	0,000000
3,561675	172,952163	55,411	-0,066305	345,980000	0,000000
3,577624	181,861456	56,213	-0,062759	345,980000	0,000000
3,593627	191,335093	57,014	-0,058988	345,980000	0,000000
3,609629	201,349766	57,817	-0,055002	345,980000	0,000000
3,625588	210,607481	58,619	-0,051318	345,840000	0,000000
3,641598	219,940032	59,420	-0,047604	345,840000	0,000000
3,657649	229,679894	60,221	-0,043727	345,840000	0,000000
3,659601	231,368022	61,021	-0,043055	345,840000	0,000000
3,659634	230,593887	61,824	-0,043363	345,840000	0,000000
3,659641	229,987830	62,625	-0,043604	346,560000	0,000000
3,659603	229,597696	63,427	-0,043760	346,560000	0,000000
3,659572	229,713018	64,230	-0,043714	346,560000	0,000000
3,659606	229,322884	65,030	-0,043869	0,000000	0,670000
3,659644	228,965874	65,832	-0,044011	0,000000	0,670000
3,659643	228,459190	66,632	-0,044213	0,000000	1,080000
3,659610	228,358590	67,432	-0,044253	0,000000	1,080000
3,659580	228,334053	68,232	-0,044263	0,000000	1,080000
3,659664	228,208916	69,034	-0,044312	0,000000	0,500000
3,659613	228,059242	69,834	-0,044372	0,000000	0,500000
3,653675	225,143049	70,636	-0,045533	0,000000	0,500000
3,637666	213,972696	71,437	-0,049979	0,000000	0,500000
3,621602	203,518815	72,238	-0,054139	0,000000	0,500000
3,605574	192,880908	73,041	-0,058373	0,000000	0,290000
3,589650	182,650312	73,843	-0,062445	0,000000	0,290000
3,573626	171,214962	74,646	-0,066996	0,000000	0,670000
3,557650	161,807573	75,447	-0,070740	0,000000	0,670000
3,541634	151,526676	76,250	-0,074832	0,000000	0,670000
3,525631	141,321844	77,052	-0,078894	0,000000	0,670000
3,509650	129,994455	77,856	-0,083402	0,000000	0,670000
3,493619	120,246005	78,658	-0,087282	0,000000	0,670000
3,477647	111,337940	79,459	-0,090827	0,000000	0,670000
3,461614	99,976199	80,262	-0,095349	0,000000	0,670000
3,445621	91,325769	81,065	-0,098792	363,710000	156,715000
3,429646	80,554138	81,868	-0,103079	363,710000	156,715000
3,413635	70,457267	82,669	-0,107098	363,710000	156,715000
3,397715	60,517431	83,471	-0,111054	363,710000	156,715000
3,381688	51,127218	84,274	-0,114791	363,710000	156,715000
3,365672	42,035127	85,077	-0,118410	363,710000	156,715000
3,349666	33,009285	85,879	-0,122002	363,710000	156,715000
3,333709	23,194586	86,680	-0,125908	363,710000	156,715000
3,317726	12,806955	87,480	-0,130042	363,710000	156,715000
3,301699	4,903669	88,281	-0,133188	363,710000	156,715000
3,285709	-4,287796	89,081	-0,136846	363,710000	156,715000
3,269705	-13,637524	89,883	-0,140567	363,710000	156,715000
3,253674	-22,438854	90,685	-0,144070	363,710000	156,715000
3,237679	-32,552901	91,490	-0,148096	363,710000	156,715000
3,221683	-41,620456	92,293	-0,151705	363,710000	156,715000
3,205675	-49,847627	93,094	-0,154979	363,710000	156,715000
3,189743	-58,158223	93,897	-0,158287	363,710000	156,715000
3,173718	-66,343681	94,699	-0,161544	363,710000	156,715000
3,157733	-75,634520	95,502	-0,165242	363,710000	156,715000
3,141667	-83,497321	96,304	-0,168372	363,710000	156,715000
3,125728	-90,535686	97,104	-0,171173	363,710000	156,715000
3,109782	-96,668646	97,906	-0,173614	363,710000	156,715000
3,093720	-103,882449	98,710	-0,176485	363,710000	156,715000
3,077716	-110,347882	99,511	-0,179058	363,710000	156,715000
3,061805	-113,938835	100,311	-0,180487	363,710000	156,715000
3,045721	-117,437775	101,112	-0,181880	363,710000	156,715000
[...]
3,359639	108,137121	79,470	-0,092362	0,000000	0,000000
3,343631	97,932288	80,273	-0,096424	0,000000	0,000000
3,327615	88,948159	81,073	-0,100000	0,000000	0,000000
3,311647	78,468514	81,876	-0,104170	0,000000	0,000000
3,295602	69,609522	82,677	-0,107696	0,000000	0,000000
3,279685	58,249009	83,480	-0,112218	0,000000	0,000000
3,263587	50,170285	84,282	-0,115433	0,000000	0,000000
3,247629	41,103957	85,083	-0,119042	0,000000	0,000000
3,231606	30,316377	85,884	-0,123335	0,000000	0,000000
3,215681	21,432848	86,686	-0,126871	0,000000	0,000000
3,199666	12,166546	87,490	-0,130559	0,000000	0,000000
3,183661	1,213342	88,290	-0,134918	0,000000	0,000000
3,167625	-6,832257	89,092	-0,138120	0,000000	0,000000
3,151646	-17,045678	89,893	-0,142185	0,000000	0,000000
3,135676	-25,156299	90,695	-0,145413	0,000000	0,000000
3,119690	-34,464314	91,498	-0,149118	0,000000	0,000000
3,103691	-43,739204	92,298	-0,152809	0,000000	0,000000
3,087655	-52,107461	93,102	-0,156140	0,000000	0,000000
3,071655	-62,254633	93,905	-0,160178	0,000000	0,000000
3,055671	-69,701535	94,708	-0,163142	0,000000	0,000000
3,039655	-77,422022	95,508	-0,166215	0,000000	0,000000
3,023660	-85,267647	96,310	-0,169337	0,000000	0,000000
3,007664	-94,633323	97,110	-0,173065	0,000000	0,000000
2,991727	-101,131880	97,911	-0,175651	0,000000	0,000000
2,975627	-109,651038	98,712	-0,179042	0,000000	0,000000
2,959663	-114,229595	99,516	-0,180864	0,000000	0,000000
2,943670	-119,415437	100,320	-0,182928	0,000000	0,000000
2,927665	-124,028345	101,120	-0,184764	0,000000	0,000000
2,911626	-128,324729	101,924	-0,186474	0,000000	0,000000
2,895686	-135,488232	102,726	-0,189325	0,000000	0,000000
2,879711	-143,890841	103,528	-0,192669	0,000000	0,000000
2,863665	-151,162306	104,328	-0,195563	0,000000	0,000000
2,847660	-158,358933	105,130	-0,198428	0,000000	0,000000
2,831687	-164,583906	105,930	-0,200905	0,000000	0,000000
2,815672	-171,465236	106,733	-0,203644	0,000000	0,000000
2,799693	-178,802950	107,538	-0,206564	0,000000	0,000000
2,783703	-185,235258	108,340	-0,209125	0,000000	0,000000
2,767722	-191,418518	109,142	-0,211585	0,000000	0,000000
2,751681	-197,709740	109,948	-0,214089	0,000000	0,000000
2,735667	-201,490853	110,750	-0,215594	0,000000	0,000000
2,719739	-180,299692	111,551	-0,207160	0,000000	0,000000
2,703676	-146,599698	112,352	-0,193748	2,640000	2,760000
2,687691	-146,375186	113,152	-0,193658	2,640000	2,760000
2,671739	-147,198394	113,956	-0,193986	2,640000	2,760000
2,655680	-149,874126	114,760	-0,195051	2,640000	2,760000
2,639752	-151,686165	115,564	-0,195772	2,640000	2,760000
2,623678	-152,873744	116,368	-0,196245	2,640000	2,760000
2,607725	-154,851405	117,169	-0,197032	2,640000	2,760000
2,591716	-156,115048	117,971	-0,197535	2,640000	2,760000
2,575716	-154,053961	118,772	-0,196714	2,640000	2,760000
2,559671	-0,931170	119,573	-0,135771	2,640000	2,760000
2,543705	-0,889457	120,377	-0,135755	2,640000	2,760000
2,527735	-0,831796	121,178	-0,135732	2,640000	2,760000
2,511714	-0,648997	121,979	-0,135659	2,640000	2,760000
2,495763	-0,689483	122,783	-0,135675	2,640000	2,760000
2,479703	-0,823208	123,587	-0,135729	2,640000	2,760000
2,463736	-0,574160	124,391	-0,135629	2,640000	2,760000
2,447685	-0,532447	125,192	-0,135613	2,640000	2,760000
2,431708	-0,391361	125,995	-0,135557	2,640000	2,760000
2,415720	-0,656358	126,798	-0,135662	2,640000	2,760000
2,399770	-0,556984	127,599	-0,135623	2,640000	2,760000
2,383719	-0,523860	128,401	-0,135609	2,640000	2,760000
2,367742	-0,664946	129,205	-0,135666	2,640000	2,760000
2,351758	-0,506684	130,008	-0,135603	2,640000	2,760000
2,341765	-0,523860	130,509	-0,135609	2,640000	2,760000