Folder: Nanoindentation_Analysis/Nanoindentation Datenauswertung/data/PDMS (part 8)

File: EM-PDMS-50-10-50-1um-4
Quasi static measurement routine
Tip parameters (shape,radius, material...)
24.08.2022

Piezo position[nm]	MEMS displ.[nm]	Time[ms]	Cap [pf]	Temp [°C]	Rh [%]
eoh
2,633670	0,182799	0,264	-0,135226	22,710000	52,165000
2,647695	-0,158262	0,964	-0,135361	22,710000	52,165000
2,661704	-0,133725	1,667	-0,135352	22,710000	52,165000
2,675634	-0,257636	2,369	-0,135401	22,710000	52,165000
2,689705	-0,050300	3,074	-0,135318	22,710000	52,165000
2,703671	-0,041712	3,776	-0,135315	22,710000	52,165000
2,717701	-0,299348	4,477	-0,135417	22,710000	52,165000
2,731727	-0,074837	5,180	-0,135328	22,710000	52,165000
2,745672	-0,391361	5,882	-0,135454	22,710000	52,165000
2,759743	-0,191387	6,585	-0,135375	22,710000	52,165000
2,773694	-0,391361	7,287	-0,135454	22,710000	52,165000
2,787672	-0,391361	7,990	-0,135454	22,720000	52,165000
2,801661	-0,299348	8,692	-0,135417	22,720000	52,165000
2,815668	-0,208562	9,393	-0,135381	22,720000	52,165000
2,829685	-0,449022	10,094	-0,135477	22,700000	52,160000
2,843755	-0,473559	10,797	-0,135487	22,700000	52,160000
2,857720	-0,299348	11,499	-0,135417	22,700000	52,160000
2,871685	-0,698070	12,202	-0,135576	22,700000	52,160000
2,885715	-0,640409	12,905	-0,135553	22,700000	52,160000
2,899719	-0,424486	13,607	-0,135467	22,700000	52,160000
2,913717	-0,598697	14,310	-0,135537	22,730000	52,185000
2,927702	-0,806032	15,012	-0,135619	22,730000	52,185000
2,941770	-0,241687	15,713	-0,135395	22,730000	52,185000
2,955690	-0,831796	16,413	-0,135629	22,710000	52,180000
2,969712	-0,823208	17,117	-0,135626	22,710000	52,180000
2,983702	-0,682122	17,819	-0,135570	22,720000	52,165000
2,997646	-0,790083	18,522	-0,135613	22,720000	52,165000
3,011660	-0,756959	19,222	-0,135600	22,720000	52,165000
3,025585	-0,889457	19,922	-0,135652	22,720000	52,150000
3,039718	-0,922582	20,623	-0,135666	22,720000	52,150000
3,053682	-1,230518	21,323	-0,135788	22,720000	52,150000
3,067705	-1,014594	22,026	-0,135702	22,710000	52,150000
3,081656	-1,396141	22,726	-0,135854	22,710000	52,150000
3,095712	-0,939757	23,429	-0,135672	22,710000	52,150000
3,109628	-1,272230	24,130	-0,135805	22,710000	52,165000
3,123670	-1,463617	24,831	-0,135881	22,710000	52,165000
3,137603	-68,812078	25,533	-0,162686	22,710000	52,165000
3,151619	-65,354850	26,236	-0,161310	22,710000	52,165000
3,165634	-61,498901	26,939	-0,159775	22,710000	52,165000
3,179660	-55,522976	27,640	-0,157396	22,710000	52,165000
3,193624	-50,935832	28,343	-0,155571	22,710000	52,150000
3,207671	-46,564610	29,049	-0,153831	22,710000	52,150000
3,221657	-40,598500	29,750	-0,151457	22,710000	52,150000
3,235672	-35,228633	30,452	-0,149319	22,710000	52,150000
3,249604	-29,511572	31,152	-0,147044	22,710000	52,150000
3,263646	-23,535647	31,856	-0,144666	22,710000	52,150000
3,277634	-17,992796	32,557	-0,142459	22,710000	52,150000
3,291615	-10,721331	33,260	-0,139565	22,710000	52,150000
3,305666	-6,332934	33,963	-0,137819	22,710000	52,150000
3,319620	-0,017176	34,665	-0,135305	22,710000	52,150000
3,333638	6,897279	35,365	-0,132553	22,710000	52,150000
3,347649	12,723530	36,067	-0,130234	22,710000	52,150000
3,361625	19,986407	36,769	-0,127344	22,710000	52,150000
3,375625	25,081462	37,472	-0,125316	22,710000	52,150000
3,389585	31,754230	38,174	-0,122660	22,710000	52,150000
3,403641	31,496594	38,875	-0,122763	22,710000	52,150000
3,417624	15,390674	39,576	-0,129173	22,710000	52,150000
3,431638	12,232795	40,278	-0,130430	22,710000	52,165000
3,445640	15,815160	40,981	-0,129004	22,710000	52,165000
3,459581	21,149448	41,682	-0,126881	22,710000	52,165000
3,473558	29,303009	42,386	-0,123636	22,730000	52,170000
3,487610	36,275126	43,090	-0,120861	22,730000	52,170000
3,501569	44,519472	43,790	-0,117580	22,710000	52,205000
3,515598	52,123410	44,495	-0,114553	22,710000	52,205000
3,529640	58,947079	45,196	-0,111837	22,710000	52,205000
3,543531	67,557023	45,896	-0,108411	22,710000	52,165000
3,557521	75,302047	46,598	-0,105328	22,710000	52,165000
3,571571	83,537806	47,299	-0,102050	22,710000	52,165000
3,585620	91,174868	47,999	-0,099011	22,710000	52,165000
3,599545	99,760276	48,699	-0,095594	22,710000	52,165000
3,613554	108,976278	49,402	-0,091926	22,710000	52,165000
3,627523	116,123832	50,103	-0,089081	22,700000	52,120000
3,633590	120,312255	50,807	-0,087414	22,700000	52,120000
3,633625	119,215462	51,511	-0,087851	22,700000	52,120000
3,633570	118,882989	52,212	-0,087983	22,720000	52,180000
3,633583	118,459730	52,915	-0,088151	22,720000	52,180000
3,633537	118,151794	53,621	-0,088274	22,720000	52,180000
3,633594	117,827909	54,322	-0,088403	22,720000	52,180000
3,633611	117,478260	55,024	-0,088542	22,720000	52,180000
3,633605	117,354350	55,725	-0,088591	22,720000	52,180000
3,633571	117,304050	56,427	-0,088611	22,710000	52,150000
3,633588	116,729890	57,130	-0,088840	22,710000	52,150000
3,633559	116,564267	57,832	-0,088906	22,700000	52,175000
3,633529	116,447717	58,534	-0,088952	22,700000	52,175000
3,633590	116,289455	59,238	-0,089015	22,700000	52,175000
3,633583	116,264918	59,940	-0,089025	22,720000	52,140000
3,629580	114,611142	60,643	-0,089683	22,720000	52,140000
3,615508	105,162041	61,346	-0,093444	22,720000	52,140000
3,601535	95,646690	62,049	-0,097231	22,730000	52,170000
3,587546	86,255251	62,751	-0,100969	22,730000	52,170000
3,573566	77,429383	63,452	-0,104481	22,730000	52,170000
3,559534	68,786314	64,154	-0,107921	22,720000	52,150000
3,545565	58,431807	64,856	-0,112042	22,720000	52,150000
3,531590	50,976317	65,560	-0,115010	22,720000	52,150000
3,517608	42,392136	66,262	-0,118426	22,710000	52,165000
3,503630	33,026460	66,965	-0,122154	22,710000	52,165000
3,489565	24,823826	67,667	-0,125418	22,710000	52,165000
3,475623	15,523173	68,371	-0,129120	22,720000	52,165000
3,461557	8,061548	69,071	-0,132090	22,720000	52,165000
3,447634	-1,662365	69,774	-0,135960	22,720000	52,165000
3,433599	-8,651657	70,479	-0,138742	22,720000	52,165000
3,419614	-16,580706	71,181	-0,141897	22,720000	52,165000
3,405593	-25,264261	71,884	-0,145354	22,710000	52,150000
3,391630	-33,292684	72,589	-0,148549	22,710000	52,150000
3,377613	-42,874284	73,290	-0,152362	22,710000	52,150000
3,363686	-50,072138	73,991	-0,155227	22,710000	52,150000
3,349611	-57,792625	74,694	-0,158300	22,710000	52,150000
3,335648	-67,149713	75,395	-0,162024	22,710000	52,150000
3,321610	-73,482648	76,097	-0,164544	22,710000	52,165000
3,307657	-81,535608	76,800	-0,167750	22,710000	52,165000
3,293616	-88,674574	77,502	-0,170591	22,710000	52,165000
3,279630	-96,071176	78,204	-0,173535	22,720000	52,165000
3,265598	-105,121555	78,907	-0,177137	22,720000	52,165000
3,251626	-111,129377	79,607	-0,179528	22,720000	52,165000
3,237632	-119,556523	80,310	-0,182882	22,720000	52,165000
3,223695	-125,241687	81,011	-0,185145	22,720000	52,165000
3,209571	-131,865382	81,713	-0,187781	22,720000	52,165000
3,195683	-138,546738	82,414	-0,190440	22,730000	52,195000
3,181623	-145,353231	83,115	-0,193149	22,730000	52,195000
3,167642	-149,409155	83,817	-0,194763	22,710000	52,140000
3,153645	-153,481028	84,521	-0,196384	22,710000	52,140000
3,139622	-155,484454	85,222	-0,197181	22,710000	52,140000
3,125633	-161,243228	85,923	-0,199473	22,730000	52,185000
3,111690	-166,279395	86,626	-0,201478	22,730000	52,185000
3,097668	-174,066131	87,331	-0,204577	22,730000	52,185000
3,083676	-179,285097	88,035	-0,206654	22,720000	52,190000
3,069689	-185,825367	88,735	-0,209257	22,720000	52,190000
3,055694	-193,131183	89,438	-0,212165	22,720000	52,190000
3,041671	-199,455530	90,140	-0,214682	22,710000	52,150000
3,027666	-203,818163	90,841	-0,216418	22,710000	52,150000
3,013670	-210,375609	91,544	-0,219028	22,710000	52,150000
2,999656	-215,951584	92,246	-0,221247	22,710000	52,150000
2,985687	-220,838077	92,950	-0,223192	22,710000	52,150000
2,971713	-223,729733	93,654	-0,224343	22,710000	52,150000
2,957767	-177,065749	94,355	-0,205771	22,710000	52,150000
2,943678	-159,314640	95,056	-0,198706	22,710000	52,150000
2,929671	-156,863419	95,759	-0,197730	22,710000	52,150000
2,915648	-156,954205	96,459	-0,197766	22,700000	52,135000
2,901731	-157,752876	97,160	-0,198084	22,700000	52,135000
2,887681	-158,682818	97,860	-0,198454	22,700000	52,135000
2,873676	-157,328390	98,561	-0,197915	22,700000	52,135000
2,859735	-156,605783	99,264	-0,197627	22,700000	52,135000
2,845666	-143,184183	99,964	-0,192286	22,710000	52,180000
2,831718	-1,446441	100,665	-0,135874	22,710000	52,180000
2,817723	-1,122556	101,368	-0,135745	22,710000	52,180000
2,803691	-1,063668	102,069	-0,135722	22,710000	52,190000
2,789707	-1,371604	102,769	-0,135844	22,710000	52,190000
2,775678	-1,305355	103,469	-0,135818	22,710000	52,190000
2,761671	-1,239106	104,173	-0,135792	22,720000	52,180000
2,747620	-0,931170	104,875	-0,135669	22,720000	52,180000
2,733745	-1,072256	105,576	-0,135725	22,720000	52,180000
2,719674	-0,981470	106,278	-0,135689	22,720000	52,165000
2,705717	-0,939757	106,980	-0,135672	22,720000	52,165000
2,691674	-1,080844	107,682	-0,135729	22,720000	52,165000
2,677697	-0,856332	108,383	-0,135639	22,720000	52,165000
2,663686	-1,006007	109,083	-0,135699	22,720000	52,165000
2,649706	-0,814620	109,785	-0,135623	22,720000	52,165000
2,635735	-0,790083	110,488	-0,135613	22,720000	52,165000
2,633721	-0,814620	110,588	-0,135623	22,720000	52,165000

File: EM-PDMS-50-10-50-1um-5
Quasi static measurement routine
Tip parameters (shape,radius, material...)
24.08.2022

Piezo position[nm]	MEMS displ.[nm]	Time[ms]	Cap [pf]	Temp [°C]	Rh [%]
eoh
2,551814	0,149674	0,243	-0,135781	22,700000	51,965000
2,565774	0,099374	0,943	-0,135801	22,700000	51,965000
2,579818	0,165623	1,644	-0,135775	22,700000	51,965000
2,593809	0,141086	2,347	-0,135785	22,700000	51,950000
2,607801	0,141086	3,051	-0,135785	22,700000	51,950000
2,621800	0,182799	3,751	-0,135768	22,700000	51,950000
2,635817	0,074837	4,452	-0,135811	22,700000	51,925000
2,649822	0,273585	5,153	-0,135732	22,700000	51,925000
2,663779	-0,017176	5,860	-0,135848	22,700000	51,925000
2,677774	-0,175438	6,562	-0,135911	22,700000	51,925000
2,691752	0,066249	7,265	-0,135814	22,700000	51,925000
2,705841	0,066249	7,967	-0,135814	22,700000	51,925000
2,719832	-0,083425	8,736	-0,135874	22,690000	51,965000
2,733849	-0,149674	9,441	-0,135900	22,690000	51,965000
2,747771	-0,116550	10,143	-0,135887	22,690000	51,965000
2,761800	0,090786	10,843	-0,135805	22,700000	51,925000
2,775772	-0,041712	11,546	-0,135857	22,700000	51,925000
2,789749	-0,257636	12,247	-0,135943	22,700000	51,925000
2,803798	-0,215923	12,949	-0,135927	22,700000	51,925000
2,817743	-0,066249	13,651	-0,135867	22,700000	51,925000
2,831756	-0,182799	14,352	-0,135914	22,700000	51,965000
2,845750	-0,391361	15,055	-0,135997	22,700000	51,965000
2,859805	-0,341061	15,757	-0,135977	22,700000	51,965000
2,873720	0,015949	16,457	-0,135834	22,710000	51,940000
2,887739	-0,365598	17,159	-0,135986	22,710000	51,940000
2,901772	-0,431847	17,861	-0,136013	22,710000	51,940000
2,915792	-0,541035	18,562	-0,136056	22,700000	51,935000
2,929814	-0,490735	19,262	-0,136036	22,700000	51,935000
2,943721	-0,548396	19,963	-0,136059	22,700000	51,935000
2,957705	-0,499323	20,664	-0,136040	22,690000	51,950000
2,971720	-0,706658	21,367	-0,136122	22,690000	51,950000
2,985741	-0,772908	22,070	-0,136148	22,690000	51,950000
2,999814	-0,856332	22,772	-0,136182	22,690000	51,950000
3,013796	-0,640409	23,473	-0,136096	22,690000	51,950000
3,027813	-0,623233	24,173	-0,136089	22,690000	51,950000
3,041724	-0,565572	24,877	-0,136066	22,700000	51,925000
3,055748	-1,138505	25,579	-0,136294	22,700000	51,925000
3,069774	-34,563688	26,281	-0,149597	22,700000	51,925000
3,083758	-67,764359	26,982	-0,162811	22,700000	51,925000
3,097753	-62,271808	27,687	-0,160625	22,700000	51,925000
3,111733	-58,607245	28,391	-0,159167	22,690000	51,935000
3,125766	-52,498822	29,093	-0,156735	22,690000	51,935000
3,139775	-47,960751	29,795	-0,154929	22,690000	51,935000
3,153728	-41,993414	30,497	-0,152554	22,690000	51,935000
3,167701	-37,056621	31,199	-0,150589	22,690000	51,935000
3,181704	-31,506409	31,899	-0,148380	22,690000	51,935000
3,195780	-25,297385	32,602	-0,145909	22,700000	51,935000
3,209762	-19,488311	33,305	-0,143597	22,700000	51,935000
3,223713	-13,238801	34,007	-0,141110	22,700000	51,935000
3,237747	-6,466659	34,709	-0,138415	22,700000	51,950000
3,251733	0,821981	35,410	-0,135514	22,700000	51,950000
3,265678	6,373420	36,113	-0,133304	22,700000	51,950000
3,279715	13,362712	36,815	-0,130522	22,690000	51,965000
3,293693	20,028119	37,517	-0,127870	22,690000	51,965000
3,307672	26,552440	38,218	-0,125273	22,690000	51,965000
3,321778	34,172326	38,920	-0,122240	22,690000	51,910000
3,335688	39,441593	39,623	-0,120143	22,690000	51,910000
3,349659	47,403767	40,325	-0,116974	22,690000	51,910000
3,363652	53,728113	41,027	-0,114457	22,690000	51,950000
3,377683	44,453223	41,729	-0,118148	22,690000	51,950000
3,391663	35,253170	42,431	-0,121810	22,690000	51,925000
3,405648	41,894041	43,132	-0,119167	22,690000	51,925000
3,419663	49,531103	43,834	-0,116127	22,690000	51,925000
3,433650	56,844280	44,539	-0,113217	22,690000	51,950000
3,447652	61,323463	45,240	-0,111434	22,690000	51,950000
3,461706	66,310557	45,946	-0,109449	22,690000	51,950000
3,475657	71,122213	46,646	-0,107534	22,700000	51,950000
3,489673	76,283517	47,350	-0,105480	22,700000	51,950000
3,503671	83,196745	48,052	-0,102729	22,700000	51,950000
3,517695	89,778728	48,754	-0,100109	22,700000	51,950000
3,531715	98,463509	49,458	-0,096652	22,700000	51,950000
3,545658	105,860111	50,158	-0,093708	22,700000	51,950000
3,551670	108,046335	50,860	-0,092838	22,700000	51,935000
3,551608	107,056277	51,560	-0,093232	22,700000	51,935000
3,551673	106,201172	52,261	-0,093573	22,700000	51,935000
3,551703	106,093210	52,963	-0,093616	22,700000	51,935000
3,551652	105,560763	53,664	-0,093828	22,700000	51,935000
3,551603	105,162041	54,368	-0,093986	22,690000	51,950000
3,551671	104,530219	55,069	-0,094238	22,690000	51,950000
3,551670	104,356009	55,771	-0,094307	22,690000	51,950000
3,551678	104,497095	56,472	-0,094251	22,700000	51,910000
3,551661	104,131497	57,176	-0,094396	22,700000	51,910000
3,551685	104,115548	57,878	-0,094403	22,700000	51,910000
3,551623	103,957286	58,580	-0,094466	22,690000	51,935000
3,551698	103,607638	59,280	-0,094605	22,690000	51,935000
3,551716	103,259216	59,980	-0,094744	22,690000	51,935000
3,547642	101,398104	60,680	-0,095484	22,690000	51,950000
3,533712	92,131802	61,381	-0,099172	22,690000	51,950000
3,519654	83,321883	62,083	-0,102679	22,690000	51,950000
3,505645	74,487427	62,786	-0,106195	22,690000	51,950000
3,491642	64,282595	63,487	-0,110256	22,690000	51,950000
3,477725	57,376727	64,189	-0,113005	22,690000	51,950000
3,463724	48,234336	64,892	-0,116644	22,690000	51,965000
3,449604	39,126296	65,596	-0,120269	22,690000	51,965000
3,435658	31,031623	66,298	-0,123490	22,690000	51,965000
3,421657	22,978663	67,002	-0,126695	22,690000	51,965000
3,407728	13,870623	67,706	-0,130320	22,690000	51,965000
3,393682	6,831030	68,409	-0,133122	22,690000	51,965000
3,379757	-2,360435	69,110	-0,136780	22,690000	51,965000
3,365693	-10,197472	69,810	-0,139899	22,690000	51,965000
3,351718	-16,986789	70,514	-0,142602	22,690000	51,965000
3,337807	-24,050919	71,218	-0,145413	22,690000	51,965000
3,323661	-31,422984	71,920	-0,148347	22,690000	51,965000
3,309739	-38,602436	72,623	-0,151205	22,690000	51,965000
3,295703	-47,170668	73,326	-0,154615	22,690000	51,965000
3,281728	-52,082924	74,027	-0,156570	22,690000	51,965000
3,267708	-57,891999	74,729	-0,158882	22,690000	51,975000
3,253667	-64,258058	75,429	-0,161416	22,690000	51,975000
3,239756	-68,538493	76,130	-0,163119	22,690000	51,975000
3,225697	-73,731696	76,831	-0,165186	22,690000	51,935000
3,211729	-79,956668	77,531	-0,167664	22,690000	51,935000
3,197762	-85,234522	78,234	-0,169764	22,690000	51,935000
3,183672	-92,015252	78,939	-0,172463	22,700000	51,965000
3,169780	-99,394678	79,640	-0,175400	22,700000	51,965000
3,155748	-106,526284	80,341	-0,178238	22,700000	51,925000
3,141746	-114,445519	81,043	-0,181390	22,700000	51,925000
3,127728	-121,443399	81,743	-0,184175	22,700000	51,925000
3,113750	-127,884295	82,445	-0,186739	22,700000	51,925000
3,099762	-134,649075	83,148	-0,189431	22,700000	51,925000
3,085769	-141,671492	83,849	-0,192226	22,700000	51,925000
3,071765	-148,552823	84,551	-0,194965	22,700000	51,925000
3,057763	-156,971380	85,253	-0,198315	22,700000	51,925000
3,043759	-162,564532	85,955	-0,200542	22,700000	51,925000
3,029802	-170,318143	86,657	-0,203627	22,690000	51,950000
3,015779	-176,111269	87,358	-0,205933	22,690000	51,950000
3,001728	-183,764280	88,059	-0,208979	22,690000	51,950000
2,987761	-189,266646	88,761	-0,211169	22,700000	51,910000
2,973768	-196,122213	89,462	-0,213897	22,700000	51,910000
2,959793	-201,574278	90,164	-0,216067	22,700000	51,910000
2,945743	-207,350228	90,867	-0,218366	22,700000	51,910000
2,931758	-213,740823	91,568	-0,220910	22,700000	51,910000
2,917810	-216,233757	92,271	-0,221902	22,700000	51,910000
2,903759	-155,740863	92,973	-0,197826	22,690000	51,965000
2,889776	-148,411736	93,674	-0,194909	22,690000	51,965000
2,875793	-148,020375	94,376	-0,194753	22,690000	51,965000
2,861764	-149,491353	95,078	-0,195338	22,690000	51,965000
2,847777	-150,389398	95,781	-0,195696	22,690000	51,965000
2,833832	-152,018638	96,483	-0,196344	22,690000	51,925000
2,819792	-152,998881	97,184	-0,196734	22,690000	51,925000
2,805786	-151,045756	97,885	-0,195957	22,690000	51,925000
2,791738	-137,591031	98,588	-0,190602	22,690000	51,925000
2,777732	-110,265684	99,288	-0,179727	22,690000	51,925000
2,763785	-0,233099	99,990	-0,135934	22,690000	51,925000
2,749825	-0,182799	100,690	-0,135914	22,690000	51,950000
2,735752	0,008588	101,394	-0,135837	22,690000	51,950000
2,721806	-0,100601	102,096	-0,135881	22,690000	51,950000
2,707807	-0,224511	102,798	-0,135930	22,690000	51,950000
2,693780	-0,092013	103,501	-0,135877	22,690000	51,950000
2,679802	-0,024537	104,203	-0,135851	22,690000	51,950000
2,665857	0,074837	104,903	-0,135811	22,690000	51,935000
2,651764	0,099374	105,606	-0,135801	22,690000	51,935000
2,637799	-0,041712	106,308	-0,135857	22,690000	51,935000
2,623775	0,149674	107,010	-0,135781	22,700000	51,925000
2,609768	-0,074837	107,711	-0,135871	22,700000	51,925000
2,595791	0,149674	108,415	-0,135781	22,700000	51,925000
2,581762	0,257636	109,117	-0,135738	22,700000	51,925000
2,567783	-0,017176	109,820	-0,135848	22,700000	51,925000
2,553768	0,074837	110,526	-0,135811	22,690000	51,935000
2,551800	0,182799	110,627	-0,135768	22,690000	51,935000