Folder: Nanoindentation_Analysis/Nanoindentation Datenauswertung/data/PDMS_10-1

File: test-4
Quasi static measurement routine
Tip parameters (shape,radius, material...)
16.09.2022

Piezo position[nm]	MEMS displ.[nm]	Time[ms]	Cap [pf]	Temp [°C]	Rh [%]
eoh
0,608144	-0,415386	1,068	-0,075808	22,080000	48,455000
0,644125	-0,149261	2,873	-0,075695	22,090000	48,440000
0,680091	-0,101822	4,682	-0,075675	22,090000	48,505000
0,716096	-0,109921	6,483	-0,075679	22,090000	48,505000
0,752121	-0,149261	8,288	-0,075695	22,090000	48,480000
0,788078	-0,085623	10,093	-0,075668	22,090000	48,480000
0,824088	-0,093722	11,896	-0,075672	22,090000	48,455000
0,860113	-0,352905	13,701	-0,075781	22,090000	48,465000
0,896120	-0,156204	15,506	-0,075698	22,080000	48,480000
0,932120	-0,077523	17,309	-0,075665	22,090000	48,480000
0,968126	-0,149261	19,116	-0,075695	22,090000	48,505000
1,004090	-0,141162	20,923	-0,075692	22,090000	48,505000
1,040093	-0,093722	22,728	-0,075672	22,090000	48,480000
1,076084	-0,016199	24,532	-0,075639	22,080000	48,465000
1,112138	0,047440	26,338	-0,075612	22,080000	48,465000
1,148127	-0,101822	28,142	-0,075675	22,080000	48,465000
1,184095	-0,109921	29,947	-0,075679	22,090000	48,490000
1,220085	-0,313564	31,750	-0,075765	22,090000	48,505000
1,256125	-0,031241	33,552	-0,075646	22,090000	48,505000
1,292090	-0,046283	35,355	-0,075652	22,090000	48,490000
1,328153	-0,008099	37,160	-0,075636	22,080000	48,465000
1,364085	0,078680	38,968	-0,075599	22,090000	48,490000
1,400107	-0,469768	40,772	-0,075831	22,090000	48,480000
1,436136	-0,219842	42,578	-0,075725	22,080000	48,455000
1,472122	-0,211743	44,381	-0,075722	22,100000	48,455000
1,508073	-0,054382	46,184	-0,075655	22,100000	48,455000
1,544126	-0,627129	47,988	-0,075897	22,090000	48,480000
1,580092	-0,109921	49,792	-0,075679	22,080000	48,465000
1,616100	-0,211743	51,594	-0,075722	22,080000	48,465000
1,652133	0,149261	53,397	-0,075569	22,080000	48,480000
1,688050	-0,234884	55,201	-0,075731	22,080000	48,480000
1,724057	0,259182	57,009	-0,075523	22,090000	48,480000
1,760055	-0,133062	58,814	-0,075688	22,080000	48,480000
1,796128	-0,446627	60,624	-0,075821	22,080000	48,480000
1,832098	-0,321664	62,431	-0,075768	22,090000	48,455000
1,868094	-0,023141	64,236	-0,075642	22,090000	48,490000
1,904125	-0,242984	66,038	-0,075735	22,090000	48,490000
1,940085	-0,180502	67,841	-0,075708	22,090000	48,465000
1,976058	-0,124963	69,645	-0,075685	22,080000	48,480000
2,012086	-0,149261	71,451	-0,075695	22,080000	48,480000
2,048064	-0,164303	73,256	-0,075702	22,080000	48,455000
2,084029	-0,141162	75,060	-0,075692	22,080000	48,455000
2,120088	-0,046283	76,868	-0,075652	22,090000	48,465000
2,156058	-0,469768	78,670	-0,075831	22,090000	48,490000
2,192086	-0,149261	80,476	-0,075695	22,080000	48,480000
2,228040	-0,352905	82,303	-0,075781	22,080000	48,480000
2,264094	-0,328606	84,109	-0,075771	22,080000	48,480000
2,300078	-0,101822	85,912	-0,075675	22,080000	48,490000
2,336077	-0,180502	87,715	-0,075708	22,090000	48,480000
2,372029	-0,211743	89,520	-0,075722	22,080000	48,480000
2,408104	-0,116864	91,323	-0,075682	22,100000	48,490000
2,444112	-0,149261	93,129	-0,075695	22,100000	48,490000
2,480132	-0,282324	94,931	-0,075751	22,090000	48,465000
2,516038	-0,282324	96,736	-0,075751	22,090000	48,490000
2,552057	-0,392245	98,543	-0,075798	22,090000	48,490000
2,588092	-0,077523	100,350	-0,075665	22,090000	48,455000
2,624088	-0,289266	102,155	-0,075754	22,090000	48,455000
2,660070	0,008099	103,961	-0,075629	22,090000	48,455000
2,696026	-0,407287	105,767	-0,075804	22,090000	48,455000
2,732069	-203,653779	107,573	-0,161574	22,080000	48,480000
2,768051	-196,881480	109,378	-0,158716	22,090000	48,480000
2,804058	-178,729451	111,182	-0,151056	22,100000	48,480000
2,839991	-157,566739	112,985	-0,142125	22,090000	48,480000
2,876059	-137,814490	114,792	-0,133790	22,080000	48,480000
2,912045	-117,797273	116,595	-0,125343	22,090000	48,455000
2,948046	-97,206152	118,398	-0,116653	22,090000	48,455000
2,984062	-76,138320	120,199	-0,107763	22,090000	48,455000
3,020031	-53,164803	122,001	-0,098068	22,100000	48,480000
3,056055	-32,974026	123,805	-0,089547	22,090000	48,480000
3,092031	-11,349646	125,612	-0,080422	22,090000	48,465000
3,128042	10,745659	127,414	-0,071098	22,090000	48,465000
3,164029	33,671736	129,221	-0,061423	22,080000	48,480000
3,200012	56,418469	131,025	-0,051824	22,080000	48,480000
3,236004	77,392578	132,827	-0,042973	22,090000	48,480000
3,272000	101,039507	134,632	-0,032994	22,090000	48,480000
3,307995	122,304040	136,439	-0,024020	22,080000	48,465000
3,344003	145,699885	138,243	-0,014147	22,080000	48,465000
3,380026	168,133053	140,046	-0,004680	22,080000	48,465000
3,415989	192,156028	141,848	0,005458	22,090000	48,480000
3,451880	214,564897	143,655	0,014914	22,100000	48,490000
3,487946	237,976942	145,457	0,024794	22,090000	48,480000
3,523922	259,954227	147,260	0,034068	22,080000	48,490000
3,559919	284,362504	149,064	0,044369	22,090000	48,505000
3,595895	307,091880	150,868	0,053960	22,090000	48,480000
3,607899	313,832938	152,672	0,056805	22,090000	48,480000
3,607897	312,476859	154,480	0,056233	22,090000	48,480000
3,607899	311,685427	156,282	0,055899	22,090000	48,465000
3,607856	310,846555	158,084	0,055545	22,090000	48,465000
3,607884	310,619770	159,887	0,055449	22,090000	48,480000
3,603888	308,354238	161,693	0,054493	22,090000	48,440000
3,567900	281,241901	163,498	0,043052	22,080000	48,490000
3,531932	257,665553	165,302	0,033103	22,090000	48,465000
3,495939	233,258433	167,108	0,022803	22,100000	48,505000
3,459903	207,369113	168,908	0,011877	22,090000	48,480000
3,423917	184,929003	170,713	0,002408	22,090000	48,480000
3,387974	160,474443	172,516	-0,007912	22,090000	48,480000
3,351988	137,157277	174,323	-0,017752	22,090000	48,465000
3,315958	112,005008	176,130	-0,028366	22,090000	48,465000
3,279978	88,992150	177,938	-0,038078	22,090000	48,455000
3,244000	64,059723	179,742	-0,048599	22,090000	48,465000
3,208047	41,893837	181,544	-0,057953	22,090000	48,465000
3,171988	17,094472	183,347	-0,068418	22,100000	48,490000
3,135984	-6,176411	185,152	-0,078239	22,100000	48,490000
3,100008	-30,967676	186,956	-0,088701	22,090000	48,455000
3,064014	-53,297865	188,760	-0,098124	22,090000	48,480000
3,028042	-78,614438	190,562	-0,108808	22,090000	48,480000
2,991981	-100,952727	192,364	-0,118234	22,080000	48,480000
2,955961	-124,161128	194,167	-0,128028	22,080000	48,480000
2,920074	-148,929252	195,970	-0,138480	22,080000	48,490000
2,884051	-173,109588	197,772	-0,148685	22,080000	48,490000
2,847984	-196,999500	199,575	-0,158766	22,100000	48,490000
2,812018	-220,207901	201,378	-0,168560	22,080000	48,455000
2,776019	-243,886071	203,181	-0,178552	22,080000	48,455000
2,740096	-268,050207	204,988	-0,188750	22,080000	48,490000
2,704060	-289,856246	206,795	-0,197952	22,090000	48,480000
2,668062	-312,099656	208,600	-0,207338	22,090000	48,480000
2,632080	-336,319331	210,404	-0,217559	22,090000	48,455000
2,596079	-358,273475	212,209	-0,226824	22,090000	48,455000
2,560065	-381,741058	214,013	-0,236727	22,090000	48,490000
2,524036	-406,116938	215,817	-0,247014	22,090000	48,490000
2,488046	-427,647595	217,620	-0,256100	22,090000	48,465000
2,452052	-448,621705	219,426	-0,264951	22,080000	48,480000
2,416034	-470,458984	221,230	-0,274166	22,100000	48,465000
2,380048	-491,198210	223,033	-0,282918	22,090000	48,455000
2,344097	-514,006267	224,838	-0,292543	22,090000	48,455000
2,308052	-532,691702	226,643	-0,300428	22,090000	48,455000
2,272073	-554,575265	228,444	-0,309663	22,090000	48,455000
2,236086	-574,867863	230,248	-0,318227	22,080000	48,465000
2,200062	-595,976192	232,056	-0,327134	22,080000	48,465000
2,164087	-618,345722	233,862	-0,336574	22,090000	48,465000
2,128058	-638,104913	235,664	-0,344913	22,080000	48,480000
2,092047	-659,338205	237,468	-0,353873	22,090000	48,480000
2,056111	-680,735801	239,272	-0,362903	22,090000	48,480000
2,020079	-699,852821	241,076	-0,370970	22,090000	48,480000
1,984033	-716,994733	242,877	-0,378204	22,090000	48,480000
1,948100	-734,770716	244,679	-0,385706	22,090000	48,480000
1,912064	-752,398595	246,484	-0,393145	22,100000	48,490000
1,876074	-772,307048	248,290	-0,401546	22,100000	48,490000
1,840075	-788,641328	250,096	-0,408439	22,100000	48,490000
1,804110	-806,754017	251,898	-0,416083	22,090000	48,455000
1,768123	-824,265033	253,702	-0,423472	22,080000	48,480000
1,732069	-840,222110	255,507	-0,430206	22,080000	48,490000
1,696110	-856,227784	257,314	-0,436960	22,090000	48,480000
1,660110	-871,558890	259,119	-0,443430	22,100000	48,505000
1,624119	-879,914053	260,925	-0,446956	22,090000	48,465000
1,588097	-894,398188	262,728	-0,453068	22,090000	48,465000
1,552105	-905,716593	264,529	-0,457845	22,090000	48,490000
1,516121	-914,628305	266,333	-0,461605	22,090000	48,490000
1,480127	-926,534499	268,135	-0,466630	22,090000	48,490000
1,444126	-925,718769	269,936	-0,466286	22,090000	48,490000
1,408132	-917,952551	271,739	-0,463008	22,080000	48,455000
1,372169	-913,923652	273,543	-0,461308	22,080000	48,455000
1,336123	-905,058223	275,347	-0,457567	22,090000	48,455000
1,300111	-836,240651	277,153	-0,428526	22,090000	48,455000
1,264140	-0,909453	278,956	-0,076016	22,090000	48,440000
1,228104	-0,697710	280,762	-0,075927	22,080000	48,490000
1,192081	-0,658370	282,564	-0,075910	22,090000	48,480000
1,156137	-0,627129	284,366	-0,075897	22,090000	48,480000
1,120097	-0,336706	286,171	-0,075774	22,090000	48,480000
1,084119	-0,548449	287,975	-0,075864	22,090000	48,465000
1,048107	-0,532250	289,779	-0,075857	22,080000	48,490000
1,012149	-0,540349	291,582	-0,075860	22,080000	48,490000
0,976082	-0,720851	293,384	-0,075937	22,090000	48,465000
0,940114	-0,501009	295,185	-0,075844	22,090000	48,465000
0,904144	-0,469768	296,986	-0,075831	22,100000	48,440000
0,868115	-0,635228	298,787	-0,075900	22,090000	48,480000
0,832100	-0,305465	300,589	-0,075761	22,090000	48,480000
0,796130	-0,352905	302,392	-0,075781	22,090000	48,465000
0,760150	-0,454726	304,195	-0,075824	22,090000	48,465000
0,724152	-0,392245	306,000	-0,075798	22,080000	48,480000
0,688084	-0,352905	307,802	-0,075781	22,090000	48,465000
0,652127	-0,509108	309,604	-0,075847	22,090000	48,465000
0,616141	-0,392245	311,412	-0,075798	22,090000	48,480000
0,608103	-0,423486	311,812	-0,075811	22,090000	48,480000

File: test-5
Quasi static measurement routine
Tip parameters (shape,radius, material...)
16.09.2022

Piezo position[nm]	MEMS displ.[nm]	Time[ms]	Cap [pf]	Temp [°C]	Rh [%]
eoh
0,618037	-0,267282	1,057	-0,075884	22,110000	48,310000
0,656043	-0,180502	2,966	-0,075847	22,110000	48,340000
0,693988	-0,164303	4,869	-0,075840	22,110000	48,340000
0,732072	-0,118021	6,778	-0,075821	22,110000	48,340000
0,770019	0,054382	8,681	-0,075748	22,110000	48,340000
0,807977	-0,055539	10,586	-0,075794	22,110000	48,325000
0,846021	-0,086780	12,492	-0,075808	22,120000	48,310000
0,884021	-0,242984	14,397	-0,075874	22,120000	48,310000
0,922027	-0,227942	16,302	-0,075867	22,100000	48,320000
0,960028	-0,118021	18,209	-0,075821	22,100000	48,320000
0,998077	-0,133062	20,115	-0,075827	22,110000	48,325000
1,036072	-0,157361	22,024	-0,075837	22,110000	48,325000
1,074051	-0,063639	23,929	-0,075798	22,110000	48,310000
1,112056	-0,126120	25,835	-0,075824	22,110000	48,310000
1,150052	-0,219842	27,741	-0,075864	22,110000	48,340000
1,188016	-0,070581	29,645	-0,075801	22,110000	48,325000
1,226030	-0,172403	31,551	-0,075844	22,110000	48,325000
1,263986	-0,219842	33,453	-0,075864	22,110000	48,350000
1,302006	-0,227942	35,358	-0,075867	22,100000	48,270000
1,340044	-0,008099	37,263	-0,075774	22,110000	48,300000
1,378050	-0,070581	39,165	-0,075801	22,110000	48,300000
1,415994	0,015042	41,068	-0,075765	22,110000	48,350000
1,453996	-0,031241	42,975	-0,075784	22,100000	48,335000
1,492030	-0,336706	44,880	-0,075913	22,110000	48,310000
1,530015	-0,219842	46,784	-0,075864	22,100000	48,295000
1,567976	-0,259182	48,688	-0,075880	22,110000	48,325000
1,606040	-0,118021	50,589	-0,075821	22,110000	48,325000
1,644024	-0,236041	52,495	-0,075871	22,110000	48,310000
1,682017	-0,344805	54,401	-0,075917	22,110000	48,340000
1,719988	-0,298523	56,307	-0,075897	22,110000	48,325000
1,758007	-0,227942	58,215	-0,075867	22,110000	48,325000
1,795995	-0,415386	60,118	-0,075946	22,110000	48,310000
1,834000	-0,227942	62,021	-0,075867	22,110000	48,310000
1,872021	-0,556548	63,932	-0,076006	22,110000	48,325000
1,910026	-0,485967	65,839	-0,075976	22,110000	48,325000
1,947979	-0,369104	67,742	-0,075927	22,110000	48,310000
1,985977	-0,415386	69,646	-0,075946	22,110000	47,575000
2,023996	-0,352905	71,551	-0,075920	22,110000	48,310000
2,061976	-0,400344	73,453	-0,075940	22,110000	48,310000
2,099975	-0,408444	75,357	-0,075943	22,100000	48,320000
2,137999	-0,400344	77,261	-0,075940	22,100000	48,320000
2,175965	-0,376046	79,163	-0,075930	22,120000	48,325000
2,213969	-0,502166	81,068	-0,075983	22,110000	48,325000
2,251972	-0,306622	82,972	-0,075900	22,110000	48,325000
2,289978	-0,548449	84,874	-0,076002	22,110000	48,340000
2,327963	-0,392245	86,777	-0,075937	22,110000	48,340000
2,366004	-0,392245	88,683	-0,075937	22,110000	48,340000
2,403955	-0,564648	90,589	-0,076009	22,110000	48,340000
2,441986	-0,612087	92,496	-0,076029	22,110000	48,325000
2,479968	-0,658370	94,399	-0,076049	22,100000	48,320000
2,517984	-0,697710	96,302	-0,076065	22,110000	48,325000
2,556031	-0,651427	98,206	-0,076046	22,110000	48,325000
2,593996	-0,752092	100,112	-0,076088	22,110000	48,325000
2,631989	-0,807631	102,015	-0,076112	22,110000	48,325000
2,670003	-0,830772	103,922	-0,076122	22,100000	48,305000
2,707974	-1,058714	105,826	-0,076218	22,110000	48,300000
2,745942	-0,940693	107,730	-0,076168	22,110000	48,300000
2,783975	-200,762274	109,635	-0,160493	22,110000	48,350000
2,821971	-183,651603	111,541	-0,153272	22,110000	48,340000
2,859960	-162,536332	113,445	-0,144361	22,110000	48,300000
2,897981	-141,554123	115,351	-0,135507	22,110000	48,300000
2,935974	-118,416303	117,256	-0,125743	22,110000	48,340000
2,973980	-97,662035	119,161	-0,116984	22,110000	48,340000
3,011929	-73,818406	121,067	-0,106922	22,110000	48,340000
3,049960	-50,962909	122,971	-0,097277	22,110000	48,340000
3,087933	-27,770707	124,874	-0,087490	22,110000	48,310000
3,125945	-5,682344	126,782	-0,078169	22,110000	48,300000
3,163936	19,030241	128,686	-0,067740	22,110000	48,300000
3,201916	40,968185	130,593	-0,058482	22,110000	48,300000
3,239887	66,394679	132,501	-0,047752	22,110000	48,340000
3,277885	90,105247	134,405	-0,037747	22,100000	48,320000
3,315891	113,579773	136,308	-0,027840	22,110000	48,300000
3,353872	137,195461	138,215	-0,017875	22,120000	48,325000
3,391886	162,879980	140,119	-0,007036	22,110000	48,325000
3,429891	185,704236	142,025	0,002596	22,110000	48,325000
3,467866	211,350572	143,927	0,013419	22,110000	48,340000
3,505859	234,245409	145,833	0,023081	22,110000	48,350000
3,543841	258,205902	147,737	0,033192	22,110000	48,325000
3,581843	284,102164	149,646	0,044120	22,110000	48,325000
3,619880	308,479201	151,551	0,054407	22,110000	48,300000
3,657798	332,369113	153,457	0,064489	22,110000	48,310000
3,695853	356,180345	155,363	0,074537	22,110000	48,300000
3,733845	381,881063	157,265	0,085383	22,120000	48,325000
3,771800	405,151946	159,168	0,095203	22,110000	48,350000
3,809829	429,763866	161,078	0,105589	22,110000	48,285000
3,817820	434,772799	162,985	0,107703	22,110000	48,325000
3,817805	433,502342	164,890	0,107167	22,110000	48,325000
3,817818	433,149437	166,796	0,107018	22,120000	48,325000
3,817824	432,310565	168,701	0,106664	22,110000	48,310000
3,817847	431,801457	170,606	0,106449	22,110000	48,310000
3,797800	417,599646	172,510	0,100456	22,100000	48,320000
3,759806	391,475442	174,414	0,089432	22,100000	48,320000
3,721822	363,563574	176,318	0,077653	22,100000	48,320000
3,683829	337,949635	178,223	0,066844	22,110000	48,300000
3,645834	313,526316	180,129	0,056537	22,120000	48,325000
3,607781	287,535175	182,033	0,045569	22,120000	48,325000
3,569823	261,607672	183,939	0,034627	22,120000	48,325000
3,531913	236,008775	185,841	0,023825	22,110000	48,310000
3,493898	211,859680	187,747	0,013634	22,110000	48,325000
3,455849	184,771642	189,653	0,002203	22,110000	48,310000
3,417919	160,834290	191,558	-0,007899	22,100000	48,305000
3,379870	134,483301	193,465	-0,019019	22,100000	48,305000
3,341884	109,841297	195,372	-0,029418	22,100000	48,335000
3,303886	84,242400	197,277	-0,040221	22,110000	48,285000
3,265923	60,336289	199,182	-0,050309	22,110000	48,300000
3,227887	33,616197	201,087	-0,061585	22,110000	48,325000
3,189916	9,561982	202,996	-0,071736	22,120000	48,310000
3,151939	-17,008849	204,899	-0,082949	22,110000	48,310000
3,113924	-42,505924	206,804	-0,093708	22,100000	48,305000
3,075902	-66,693202	208,709	-0,103916	22,100000	48,305000
3,037956	-92,152094	210,612	-0,114659	22,110000	48,310000
2,999991	-117,695451	212,521	-0,125438	22,110000	48,285000
2,961920	-142,926401	214,427	-0,136086	22,110000	48,285000
2,923960	-169,049448	216,330	-0,147110	22,110000	48,285000
2,885926	-192,375870	218,233	-0,156954	22,110000	48,285000
2,847962	-216,868613	220,135	-0,167290	22,110000	48,340000
2,809948	-241,652936	222,040	-0,177749	22,110000	48,340000
2,771967	-267,588539	223,949	-0,188693	22,110000	48,300000
2,733985	-291,322247	225,856	-0,198709	22,110000	48,300000
2,695989	-314,734292	227,758	-0,208589	22,110000	48,340000
2,657984	-338,883386	229,662	-0,218780	22,110000	48,340000
2,619955	-364,623445	231,568	-0,229642	22,110000	48,300000
2,581996	-387,219759	233,475	-0,239178	22,120000	48,310000
2,543959	-410,153936	235,377	-0,248856	22,110000	48,325000
2,505957	-432,484125	237,286	-0,258279	22,110000	48,310000
2,467967	-455,989892	239,187	-0,268199	22,110000	48,310000
2,430003	-477,975276	241,097	-0,277477	22,110000	48,325000
2,391977	-501,262357	243,000	-0,287304	22,110000	48,285000
2,354017	-522,981617	244,907	-0,296469	22,110000	48,325000
2,315992	-544,356070	246,817	-0,305489	22,100000	48,305000
2,277991	-564,742391	248,721	-0,314092	22,100000	48,305000
2,239979	-583,827014	250,624	-0,322146	22,120000	48,310000
2,201985	-605,922319	252,530	-0,331470	22,110000	48,310000
2,164054	-627,328014	254,435	-0,340503	22,110000	48,285000
2,126015	-648,420144	256,341	-0,349404	22,110000	48,300000
2,087920	-669,011265	258,247	-0,358094	22,110000	48,300000
2,049974	-689,898595	260,151	-0,366908	22,110000	48,310000
2,011974	-711,108746	262,055	-0,375859	22,110000	48,310000
1,974003	-729,912202	263,957	-0,383794	22,100000	48,305000
1,935958	-748,056132	265,862	-0,391451	22,100000	48,305000
1,898021	-769,830930	267,767	-0,400640	22,120000	48,300000
1,860025	-786,626879	269,673	-0,407728	22,110000	48,325000
1,822024	-802,264607	271,578	-0,414327	22,110000	48,310000
1,784033	-818,566490	273,484	-0,421206	22,100000	48,305000
1,746020	-836,218667	275,391	-0,428655	22,110000	48,325000
1,708035	-850,357996	277,298	-0,434622	22,110000	48,310000
1,670029	-862,444692	279,203	-0,439723	22,110000	48,300000
1,632042	-874,991901	281,106	-0,445018	22,100000	48,295000
1,594038	-884,673060	283,014	-0,449103	22,110000	48,300000
1,556047	-895,551781	284,918	-0,453694	22,110000	48,300000
1,518007	-896,092130	286,821	-0,453922	22,100000	48,270000
1,480014	-894,972092	288,726	-0,453449	22,110000	48,340000
1,442044	-896,922902	290,630	-0,454272	22,110000	48,300000
1,404055	-902,841288	292,535	-0,456770	22,110000	48,340000
1,366066	-855,633053	294,440	-0,436848	22,110000	48,300000
1,328023	-0,886311	296,345	-0,076145	22,110000	48,310000
1,290008	-0,541506	298,252	-0,076000	22,110000	48,310000
1,252037	-0,470925	300,158	-0,075970	22,110000	48,300000
1,214051	-0,408444	302,061	-0,075943	22,110000	48,300000
1,176009	-0,408444	303,966	-0,075943	22,110000	48,325000
1,138012	-0,321664	305,869	-0,075907	22,110000	48,325000
1,099997	-0,290423	307,774	-0,075894	22,110000	48,260000
1,062107	-0,024298	309,677	-0,075781	22,110000	48,300000
1,024055	-0,157361	311,579	-0,075837	22,110000	48,340000
0,986011	-0,259182	313,484	-0,075880	22,110000	48,340000
0,948029	-0,070581	315,386	-0,075801	22,110000	48,300000
0,910020	-0,431585	317,289	-0,075953	22,120000	48,310000
0,872052	-0,078680	319,191	-0,075804	22,110000	48,325000
0,834009	-0,329763	321,093	-0,075910	22,110000	48,310000
0,796041	-0,352905	323,000	-0,075920	22,110000	48,310000
0,758027	-0,321664	324,904	-0,075907	22,100000	48,305000
0,720048	-0,313564	326,809	-0,075903	22,110000	48,310000
0,682022	-0,282324	328,712	-0,075890	22,110000	48,310000
0,644025	-0,196701	330,613	-0,075854	22,110000	48,300000
0,618067	-0,321664	331,916	-0,075907	22,110000	48,300000