Folder: Nanoindentation_Analysis/Nanoindentation Datenauswertung/data/PDMS (part 11)

File: EM-PDMS-125-10-125-2,5um-1
Quasi static measurement routine
Tip parameters (shape,radius, material...)
25.08.2022

Piezo position[nm]	MEMS displ.[nm]	Time[ms]	Cap [pf]	Temp [°C]	Rh [%]
eoh
2,537875	-0,182799	0,257	-0,135672	0,000000	0,000000
2,567911	-0,024537	1,761	-0,135609	0,000000	0,000000
2,597925	-0,107962	3,265	-0,135643	0,000000	0,000000
2,627861	-0,141086	4,770	-0,135656	0,000000	0,000000
2,657854	0,074837	6,275	-0,135570	0,000000	0,000000
2,687893	-0,357010	7,777	-0,135742	0,000000	0,000000
2,717931	-0,315297	9,281	-0,135725	0,000000	0,000000
2,747890	-0,556984	10,788	-0,135821	0,000000	0,000000
2,777873	-0,581521	12,293	-0,135831	0,000000	0,000000
2,807883	-0,630594	13,797	-0,135851	0,000000	0,000000
2,837936	-0,747144	15,300	-0,135897	0,000000	0,000000
2,867847	-0,672307	16,806	-0,135867	0,000000	0,000000
2,897898	-1,396141	18,313	-0,136155	0,000000	0,000000
2,927884	-1,204754	19,814	-0,136079	0,000000	0,000000
2,957862	-1,370377	21,319	-0,136145	0,000000	0,000000
2,987875	-1,561764	22,824	-0,136221	0,000000	0,000000
3,017894	-2,043911	24,328	-0,136413	0,000000	0,000000
3,047876	-2,384972	25,831	-0,136549	0,000000	0,000000
3,077805	-68,911452	27,334	-0,163026	0,000000	0,000000
3,107820	-59,445175	28,842	-0,159259	0,000000	0,000000
3,137836	-48,384010	30,343	-0,154856	0,000000	0,000000
3,167859	-36,849285	31,845	-0,150266	0,000000	0,000000
3,197775	-24,158880	33,351	-0,145215	0,000000	0,000000
3,227786	-11,734699	34,853	-0,140270	0,000000	0,000000
3,257863	1,670952	36,356	-0,134935	0,000000	0,000000
3,287880	14,070597	37,862	-0,130000	0,000000	0,000000
3,317816	27,948581	39,364	-0,124476	0,000000	0,000000
3,347834	10,106686	40,864	-0,131577	0,000000	0,000000
3,377825	25,072874	42,367	-0,125621	0,000000	0,000000
3,407818	36,500864	43,871	-0,121072	0,000000	0,000000
3,437879	45,392981	45,375	-0,117533	0,000000	0,000000
3,467763	58,398683	46,881	-0,112357	0,000000	0,000000
3,497830	76,516616	48,383	-0,105146	0,000000	0,000000
3,527788	92,398025	49,884	-0,098825	0,000000	0,000000
3,557813	110,140546	51,385	-0,091764	0,000000	0,000000
3,587796	127,792282	52,886	-0,084738	0,000000	0,000000
3,617780	144,904209	54,391	-0,077928	0,000000	0,000000
3,647790	162,397682	55,895	-0,070965	0,000000	0,000000
3,677782	181,337596	57,400	-0,063427	0,000000	0,000000
3,707766	198,299849	58,902	-0,056676	0,000000	0,000000
3,737773	215,719712	60,405	-0,049743	0,000000	0,000000
3,767792	235,166310	61,908	-0,042003	0,000000	0,000000
3,797728	251,845163	63,415	-0,035365	0,000000	0,000000
3,827749	271,491736	64,917	-0,027546	0,000000	0,000000
3,857788	288,452762	66,418	-0,020795	0,000000	0,000000
3,887755	306,462734	67,922	-0,013627	0,000000	0,000000
3,917793	325,153600	69,425	-0,006188	0,000000	0,000000
3,947705	345,406230	70,926	0,001872	0,000000	0,000000
3,977761	362,393020	72,431	0,008633	0,000000	0,000000
4,007801	381,009049	73,932	0,016042	0,000000	0,000000
4,037748	399,524478	75,435	0,023411	0,000000	0,000000
4,067754	418,655779	76,942	0,031025	0,000000	0,000000
4,097745	434,429226	78,444	0,037303	0,000000	0,000000
4,127737	451,873626	79,948	0,044246	0,000000	0,000000
4,157745	470,804952	81,451	0,051781	0,000000	0,000000
4,187760	489,229595	82,956	0,059114	0,000000	0,000000
4,217734	506,249509	84,460	0,065888	0,000000	0,000000
4,247791	525,580785	85,963	0,073582	0,000000	0,000000
4,277726	544,802872	87,467	0,081232	0,000000	0,000000
4,307695	563,302352	88,971	0,088595	0,000000	0,000000
4,337705	581,901205	90,474	0,095997	0,000000	0,000000
4,367680	600,259599	91,977	0,103304	0,000000	0,000000
4,397715	618,068369	93,480	0,110392	0,000000	0,000000
4,427717	637,192309	94,984	0,118003	0,000000	0,000000
4,457696	656,555482	96,485	0,125709	0,000000	0,000000
4,487657	675,204636	97,990	0,133132	0,000000	0,000000
4,517655	693,770365	99,491	0,140521	0,000000	0,000000
4,547636	712,161884	100,994	0,147841	0,000000	0,000000
4,577626	730,744788	102,494	0,155237	0,000000	0,000000
4,607644	749,775489	103,998	0,162811	0,000000	0,000000
4,637680	770,419480	105,505	0,171027	0,000000	0,000000
4,667639	788,619612	107,009	0,178271	0,000000	0,000000
4,697577	808,240421	108,513	0,186080	0,000000	0,000000
4,727665	827,820744	110,023	0,193873	0,000000	0,000000
4,757618	845,688403	111,527	0,200984	0,000000	0,000000
4,787557	865,933672	113,030	0,209042	0,000000	0,000000
4,817577	883,809919	114,537	0,216157	0,000000	0,000000
4,847675	903,813501	116,041	0,224118	0,000000	0,000000
4,877528	922,205019	117,547	0,231438	0,000000	0,000000
4,907551	943,263682	119,052	0,239819	0,000000	0,000000
4,937540	960,790280	120,556	0,246795	0,000000	0,000000
4,967498	899,823826	122,062	0,222530	0,000000	0,000000
4,997477	916,860916	123,565	0,229311	0,000000	0,000000
5,027544	936,523437	125,068	0,237137	0,000000	0,000000
5,037552	942,972921	126,571	0,239704	0,000000	0,000000
5,037538	940,621074	128,077	0,238768	0,000000	0,000000
5,037527	938,859336	129,584	0,238066	0,000000	0,000000
5,037503	937,687706	131,085	0,237600	0,000000	0,000000
5,037483	936,340639	132,589	0,237064	0,000000	0,000000
5,037550	935,633980	134,094	0,236783	0,000000	0,000000
5,037478	934,786236	135,598	0,236445	0,000000	0,000000
5,007531	910,545157	137,104	0,226797	0,000000	0,000000
4,977555	884,158341	138,608	0,216295	0,000000	0,000000
4,947560	858,288022	140,111	0,205999	0,000000	0,000000
4,917518	833,488733	141,614	0,196129	0,000000	0,000000
4,887564	810,684281	143,118	0,187053	0,000000	0,000000
4,857547	785,693605	144,624	0,177106	0,000000	0,000000
4,827584	762,000923	146,126	0,167677	0,000000	0,000000
4,797579	737,924240	147,629	0,158094	0,000000	0,000000
4,767613	714,007047	149,136	0,148575	0,000000	0,000000
4,737675	690,264064	150,641	0,139125	0,000000	0,000000
4,707614	666,802028	152,145	0,129788	0,000000	0,000000
4,677639	643,449179	153,648	0,120493	0,000000	0,000000
4,647578	618,908753	155,150	0,110726	0,000000	0,000000
4,617606	596,826908	156,655	0,101938	0,000000	0,000000
4,587643	574,845664	158,161	0,093189	0,000000	0,000000
4,557627	550,437736	159,667	0,083475	0,000000	0,000000
4,527628	528,754613	161,173	0,074845	0,000000	0,000000
4,497613	507,180679	162,675	0,066258	0,000000	0,000000
4,467665	483,519894	164,177	0,056841	0,000000	0,000000
4,437694	461,662561	165,682	0,048142	0,000000	0,000000
4,407705	441,011208	167,185	0,039923	0,000000	0,000000
4,377714	419,702271	168,688	0,031442	0,000000	0,000000
4,347711	398,037551	170,194	0,022819	0,000000	0,000000
4,317706	374,717827	171,699	0,013538	0,000000	0,000000
4,287747	354,439433	173,203	0,005467	0,000000	0,000000
4,257747	334,502100	174,708	-0,002468	0,000000	0,000000
4,227766	312,346645	176,213	-0,011286	0,000000	0,000000
4,197721	292,010590	177,718	-0,019379	0,000000	0,000000
4,167722	273,053500	179,220	-0,026924	0,000000	0,000000
4,137722	253,897662	180,722	-0,034548	0,000000	0,000000
4,107691	235,390821	182,227	-0,041914	0,000000	0,000000
4,077755	216,176095	183,733	-0,049562	0,000000	0,000000
4,047795	195,822864	185,233	-0,057662	0,000000	0,000000
4,017732	177,723333	186,737	-0,064866	0,000000	0,000000
3,987816	159,913336	188,241	-0,071954	0,000000	0,000000
3,957722	142,452988	189,744	-0,078903	0,000000	0,000000
3,927777	124,768128	191,247	-0,085942	0,000000	0,000000
3,897690	115,268726	192,753	-0,089723	0,000000	0,000000
3,867782	110,996879	194,258	-0,091423	0,000000	0,000000
3,837788	222,392480	195,763	-0,047087	0,000000	0,000000
3,807782	210,708081	197,265	-0,051738	0,000000	0,000000
3,777812	194,120014	198,767	-0,058340	0,000000	0,000000
3,747757	176,135806	200,273	-0,065498	0,000000	0,000000
3,717777	159,805375	201,775	-0,071997	0,000000	0,000000
3,687790	142,360975	203,276	-0,078940	0,000000	0,000000
3,657777	123,678696	204,781	-0,086375	0,000000	0,000000
3,627779	107,805875	206,284	-0,092693	0,000000	0,000000
3,597822	90,203213	207,788	-0,099699	0,000000	0,000000
3,567782	72,775989	209,295	-0,106635	0,000000	0,000000
3,537889	56,513034	210,798	-0,113107	0,000000	0,000000
3,507823	40,672111	212,302	-0,119412	0,000000	0,000000
3,477820	23,843583	213,804	-0,126110	0,000000	0,000000
3,447778	6,889918	215,308	-0,132857	0,000000	0,000000
3,417860	-10,046571	216,811	-0,139598	0,000000	0,000000
3,387841	-27,224747	218,315	-0,146435	0,000000	0,000000
3,357844	-44,104801	219,817	-0,153153	0,000000	0,000000
3,327878	-60,517431	221,322	-0,159686	0,000000	0,000000
3,297905	-78,194930	222,825	-0,166721	0,000000	0,000000
3,267867	-92,671610	224,332	-0,172483	0,000000	0,000000
3,237840	-107,996035	225,836	-0,178582	0,000000	0,000000
3,207843	-119,830108	227,339	-0,183292	0,000000	0,000000
3,177883	-129,021573	228,844	-0,186950	0,000000	0,000000
3,147922	-136,576437	230,347	-0,189957	0,000000	0,000000
3,117928	-149,299967	231,853	-0,195021	0,000000	0,000000
3,087886	-164,425644	233,355	-0,201041	0,000000	0,000000
3,057913	-178,104880	234,859	-0,206485	0,000000	0,000000
3,027888	-190,304550	236,363	-0,211341	0,000000	0,000000
2,997906	-203,742099	237,868	-0,216689	0,000000	0,000000
2,967889	-216,641067	239,370	-0,221823	0,000000	0,000000
2,937904	-223,289298	240,873	-0,224469	0,000000	0,000000
2,907885	-158,050997	242,376	-0,198504	0,000000	0,000000
2,877913	-159,912109	243,880	-0,199245	0,000000	0,000000
2,847887	-162,347381	245,386	-0,200214	0,000000	0,000000
2,817919	-162,954666	246,887	-0,200456	0,000000	0,000000
2,787932	-0,698070	248,394	-0,135877	0,000000	0,000000
2,757944	-0,755732	249,898	-0,135900	0,000000	0,000000
2,727916	-0,506684	251,403	-0,135801	0,000000	0,000000
2,697914	-0,821981	252,903	-0,135927	0,000000	0,000000
2,667947	-0,590109	254,407	-0,135834	0,000000	0,000000
2,637936	-0,482147	255,911	-0,135792	0,000000	0,000000
2,607950	-0,365598	257,416	-0,135745	0,000000	0,000000
2,577941	-0,323885	258,919	-0,135729	0,000000	0,000000
2,547954	-0,240460	260,422	-0,135695	0,000000	0,000000
2,537924	-0,132498	260,923	-0,135652	0,000000	0,000000

File: EM-PDMS-125-10-125-2,5um-2
Quasi static measurement routine
Tip parameters (shape,radius, material...)
25.08.2022

Piezo position[nm]	MEMS displ.[nm]	Time[ms]	Cap [pf]	Temp [°C]	Rh [%]
eoh
2,537965	-0,074837	0,211	-0,135629	0,000000	0,000000
2,568011	-0,066249	1,715	-0,135626	0,000000	0,000000
2,597918	0,033125	3,222	-0,135586	0,000000	0,000000
2,627994	-0,132498	4,722	-0,135652	0,000000	0,000000
2,657955	0,050300	6,226	-0,135580	0,000000	0,000000
2,687995	-0,224511	7,732	-0,135689	0,000000	0,000000
2,717971	-0,215923	9,234	-0,135686	0,000000	0,000000
2,747970	-0,365598	10,736	-0,135745	0,000000	0,000000
2,777954	-0,299348	12,241	-0,135719	0,000000	0,000000
2,807980	-0,341061	13,748	-0,135735	0,000000	0,000000
2,837924	-0,464971	15,254	-0,135785	0,000000	0,000000
2,867876	-0,548396	16,758	-0,135818	0,000000	0,000000
2,897961	-0,706658	18,262	-0,135881	0,000000	0,000000
2,927929	-0,747144	19,766	-0,135897	0,000000	0,000000
2,957905	-0,872281	21,270	-0,135947	0,000000	0,000000
2,987939	-0,964294	22,775	-0,135983	0,000000	0,000000
3,017918	-1,105380	24,278	-0,136040	0,000000	0,000000
3,047922	-1,354428	25,781	-0,136139	0,000000	0,000000
3,077886	-1,387553	27,283	-0,136152	0,000000	0,000000
3,107882	-2,043911	28,785	-0,136413	0,000000	0,000000
3,137974	-60,858492	30,289	-0,159821	0,000000	0,000000
3,167879	-51,110042	31,800	-0,155941	0,000000	0,000000
3,197941	-38,386513	33,305	-0,150877	0,000000	0,000000
3,227937	-26,776951	34,807	-0,146257	0,000000	0,000000
3,257908	-14,701192	36,313	-0,141451	0,000000	0,000000
3,287887	-0,224511	37,815	-0,135689	0,000000	0,000000
3,317847	12,449945	39,322	-0,130645	0,000000	0,000000
3,347911	25,521897	40,827	-0,125442	0,000000	0,000000
3,377958	8,385433	42,332	-0,132262	0,000000	0,000000
3,407780	22,705078	43,835	-0,126563	0,000000	0,000000
3,437820	26,910676	45,338	-0,124889	0,000000	0,000000
3,467841	41,213146	46,843	-0,119197	0,000000	0,000000
3,497801	56,995181	48,345	-0,112916	0,000000	0,000000
3,527803	72,693791	49,854	-0,106667	0,000000	0,000000
3,557845	89,896504	51,358	-0,099821	0,000000	0,000000
3,587789	107,565415	52,859	-0,092789	0,000000	0,000000
3,617857	124,252856	54,365	-0,086147	0,000000	0,000000
3,647767	141,878828	55,867	-0,079132	0,000000	0,000000
3,677759	159,739125	57,372	-0,072023	0,000000	0,000000
3,707849	178,587027	58,876	-0,064522	0,000000	0,000000
3,737810	196,520935	60,383	-0,057384	0,000000	0,000000
3,767758	213,507724	61,883	-0,050624	0,000000	0,000000
3,797801	231,401146	63,386	-0,043502	0,000000	0,000000
3,827808	250,050300	64,889	-0,036080	0,000000	0,000000
3,857779	268,250432	66,392	-0,028836	0,000000	0,000000
3,887813	286,384314	67,895	-0,021619	0,000000	0,000000
3,917755	305,830912	69,400	-0,013879	0,000000	0,000000
3,947789	323,799172	70,904	-0,006728	0,000000	0,000000
3,977816	343,228594	72,406	0,001005	0,000000	0,000000
4,007796	361,644649	73,911	0,008335	0,000000	0,000000
4,037771	378,756576	75,416	0,015146	0,000000	0,000000
4,067760	394,637985	76,922	0,021466	0,000000	0,000000
4,097784	413,095752	78,425	0,028813	0,000000	0,000000
4,127788	431,030887	79,933	0,035951	0,000000	0,000000
4,157751	449,962213	81,438	0,043485	0,000000	0,000000
4,187778	467,788160	82,942	0,050580	0,000000	0,000000
4,217774	487,027422	84,445	0,058237	0,000000	0,000000
4,247799	504,844781	85,952	0,065329	0,000000	0,000000
4,277668	523,469398	87,458	0,072741	0,000000	0,000000
4,307760	543,871702	88,963	0,080861	0,000000	0,000000
4,337749	561,049878	90,464	0,087698	0,000000	0,000000
4,367703	579,923543	91,969	0,095210	0,000000	0,000000
4,397665	598,306474	93,473	0,102526	0,000000	0,000000
4,427717	616,880791	94,982	0,109919	0,000000	0,000000
4,457686	635,886954	96,487	0,117483	0,000000	0,000000
4,487689	656,115048	97,993	0,125534	0,000000	0,000000
4,517668	673,376649	99,494	0,132404	0,000000	0,000000
4,547621	693,455068	101,002	0,140396	0,000000	0,000000
4,577675	711,796286	102,506	0,147695	0,000000	0,000000
4,607647	732,332316	104,011	0,155869	0,000000	0,000000
4,637650	750,332473	105,515	0,163033	0,000000	0,000000
4,667657	769,371761	107,020	0,170610	0,000000	0,000000
4,697676	788,436813	108,525	0,178198	0,000000	0,000000
4,727647	807,434389	110,032	0,185759	0,000000	0,000000
4,757642	828,036668	111,534	0,193959	0,000000	0,000000
4,787640	846,469898	113,038	0,201295	0,000000	0,000000
4,817598	866,781417	114,543	0,209379	0,000000	0,000000
4,847574	884,748449	116,045	0,216530	0,000000	0,000000
4,877611	904,644070	117,550	0,224449	0,000000	0,000000
4,907586	923,907869	119,053	0,232116	0,000000	0,000000
4,937541	942,715285	120,556	0,239601	0,000000	0,000000
4,967509	962,985091	122,062	0,247668	0,000000	0,000000
4,997487	899,907251	123,569	0,222563	0,000000	0,000000
5,027571	917,974884	125,074	0,229754	0,000000	0,000000
5,037573	923,883333	126,578	0,232106	0,000000	0,000000
5,037597	921,655396	128,083	0,231219	0,000000	0,000000
5,037486	920,076457	129,585	0,230591	0,000000	0,000000
5,037480	918,572354	131,092	0,229992	0,000000	0,000000
5,037565	917,576162	132,594	0,229596	0,000000	0,000000
5,037536	917,052303	134,099	0,229387	0,000000	0,000000
5,037551	915,988635	135,605	0,228964	0,000000	0,000000
5,007620	891,887416	137,112	0,219372	0,000000	0,000000
4,977524	866,007283	138,615	0,209071	0,000000	0,000000
4,947526	840,086664	140,117	0,198755	0,000000	0,000000
4,917553	816,684742	141,624	0,189441	0,000000	0,000000
4,887604	790,564149	143,130	0,179045	0,000000	0,000000
4,857555	766,812579	144,635	0,169592	0,000000	0,000000
4,827591	743,151794	146,138	0,160175	0,000000	0,000000
4,797521	719,275086	147,643	0,150672	0,000000	0,000000
4,767648	695,516155	149,147	0,141216	0,000000	0,000000
4,737580	671,398987	150,650	0,131617	0,000000	0,000000
4,707627	648,112388	152,153	0,122349	0,000000	0,000000
4,677605	624,808613	153,659	0,113074	0,000000	0,000000
4,647611	599,951663	155,163	0,103181	0,000000	0,000000
4,617677	578,245230	156,668	0,094542	0,000000	0,000000
4,587626	556,321647	158,170	0,085816	0,000000	0,000000
4,557707	531,903904	159,678	0,076098	0,000000	0,000000
4,527704	511,261140	161,185	0,067882	0,000000	0,000000
4,497690	487,850630	162,687	0,058565	0,000000	0,000000
4,467713	467,189463	164,192	0,050342	0,000000	0,000000
4,437641	445,565228	165,697	0,041735	0,000000	0,000000
4,407695	423,434310	167,201	0,032927	0,000000	0,000000
4,377708	401,876325	168,702	0,024347	0,000000	0,000000
4,347748	379,753995	170,203	0,015542	0,000000	0,000000
4,317757	356,940955	171,707	0,006463	0,000000	0,000000
4,287739	335,765743	173,211	-0,001965	0,000000	0,000000
4,257734	316,510531	174,715	-0,009628	0,000000	0,000000
4,227769	296,408802	176,216	-0,017629	0,000000	0,000000
4,197741	276,004044	177,720	-0,025750	0,000000	0,000000
4,167843	255,551439	179,225	-0,033890	0,000000	0,000000
4,137771	235,281633	180,727	-0,041958	0,000000	0,000000
4,107750	217,439738	182,230	-0,049059	0,000000	0,000000
4,077751	198,399223	183,733	-0,056637	0,000000	0,000000
4,047805	178,587027	185,235	-0,064522	0,000000	0,000000
4,017714	162,355969	186,742	-0,070982	0,000000	0,000000
3,987835	144,115352	188,246	-0,078242	0,000000	0,000000
3,957806	127,676959	189,751	-0,084784	0,000000	0,000000
3,927848	111,379652	191,256	-0,091271	0,000000	0,000000
3,897731	103,334053	192,761	-0,094473	0,000000	0,000000
3,867785	119,025302	194,263	-0,088228	0,000000	0,000000
3,837809	210,549819	195,764	-0,051801	0,000000	0,000000
3,807840	194,194851	197,270	-0,058310	0,000000	0,000000
3,777801	178,104880	198,773	-0,064714	0,000000	0,000000
3,747860	162,098333	200,277	-0,071084	0,000000	0,000000
3,717802	144,637985	201,783	-0,078034	0,000000	0,000000
3,687816	127,053726	203,290	-0,085032	0,000000	0,000000
3,657811	109,043754	204,795	-0,092200	0,000000	0,000000
3,627793	90,777373	206,299	-0,099470	0,000000	0,000000
3,597834	73,458111	207,802	-0,106363	0,000000	0,000000
3,567845	58,125098	209,305	-0,112466	0,000000	0,000000
3,537833	41,337056	210,811	-0,119147	0,000000	0,000000
3,507896	25,812657	212,314	-0,125326	0,000000	0,000000
3,477839	7,645650	213,821	-0,132557	0,000000	0,000000
3,447881	-9,092091	215,322	-0,139218	0,000000	0,000000
3,417870	-26,319341	216,827	-0,146075	0,000000	0,000000
3,387879	-41,460967	218,330	-0,152101	0,000000	0,000000
3,357893	-59,270964	219,836	-0,159189	0,000000	0,000000
3,327868	-74,711939	221,343	-0,165335	0,000000	0,000000
3,297880	-90,718485	222,844	-0,171706	0,000000	0,000000
3,267874	-105,436852	224,349	-0,177563	0,000000	0,000000
3,237861	-120,030082	225,852	-0,183372	0,000000	0,000000
3,207851	-129,961330	227,353	-0,187324	0,000000	0,000000
3,177935	-137,565268	228,858	-0,190351	0,000000	0,000000
3,147986	-147,945538	230,362	-0,194482	0,000000	0,000000
3,117944	-162,596429	231,866	-0,200313	0,000000	0,000000
3,087955	-175,312598	233,370	-0,205374	0,000000	0,000000
3,057922	-190,346263	234,871	-0,211357	0,000000	0,000000
3,027861	-202,488271	236,374	-0,216190	0,000000	0,000000
2,997945	-215,020415	237,874	-0,221178	0,000000	0,000000
2,967966	-224,702615	239,374	-0,225031	0,000000	0,000000
2,937984	-159,687598	240,878	-0,199155	0,000000	0,000000
2,907955	-159,704774	242,381	-0,199162	0,000000	0,000000
2,877899	-163,826947	243,885	-0,200803	0,000000	0,000000
2,847935	-163,003739	245,388	-0,200475	0,000000	0,000000
2,817967	-0,764320	246,893	-0,135904	0,000000	0,000000
2,788036	-0,365598	248,398	-0,135745	0,000000	0,000000
2,757995	-0,348422	249,901	-0,135738	0,000000	0,000000
2,727993	-0,141086	251,403	-0,135656	0,000000	0,000000
2,698010	-0,372959	252,907	-0,135748	0,000000	0,000000
2,667999	-0,257636	254,414	-0,135702	0,000000	0,000000
2,638052	-0,116550	255,922	-0,135646	0,000000	0,000000
2,607982	-0,099374	257,426	-0,135639	0,000000	0,000000
2,577906	-0,290760	258,929	-0,135715	0,000000	0,000000
2,548012	-0,107962	260,434	-0,135643	0,000000	0,000000
2,537977	0,058888	260,934	-0,135576	0,000000	0,000000