Folder: Nanoindentation_Analysis/Nanoindentation Datenauswertung/data/PDMS_10-1 (part 2)

File: test-6
Quasi static measurement routine
Tip parameters (shape,radius, material...)
16.09.2022

Piezo position[nm]	MEMS displ.[nm]	Time[ms]	Cap [pf]	Temp [°C]	Rh [%]
eoh
0,618039	0,094879	1,071	-0,075754	22,120000	48,275000
0,660075	-0,039340	3,180	-0,075811	22,110000	48,260000
0,702064	0,047440	5,280	-0,075774	22,110000	48,250000
0,744067	-0,133062	7,387	-0,075851	22,110000	48,285000
0,786082	0,227942	9,490	-0,075698	22,110000	48,260000
0,828046	-0,141162	11,598	-0,075854	22,110000	48,260000
0,870070	-0,031241	13,702	-0,075808	22,110000	48,250000
0,912066	-0,101822	15,805	-0,075837	22,120000	48,260000
0,954082	0,039340	17,911	-0,075778	22,110000	48,250000
0,996037	0,039340	20,015	-0,075778	22,110000	48,250000
1,038061	0,062481	22,121	-0,075768	22,110000	48,250000
1,080031	0,086780	24,226	-0,075758	22,110000	48,260000
1,122051	-0,266125	26,331	-0,075907	22,110000	48,260000
1,164059	-0,156204	28,436	-0,075860	22,120000	48,275000
1,206072	-0,148104	30,537	-0,075857	22,120000	48,275000
1,248033	0,118021	32,641	-0,075745	22,110000	48,235000
1,290045	-0,054382	34,744	-0,075817	22,110000	48,260000
1,332065	-0,116864	36,846	-0,075844	22,120000	48,220000
1,374014	-0,180502	38,953	-0,075871	22,120000	48,220000
1,416030	-0,172403	41,058	-0,075867	22,110000	48,250000
1,458023	0,118021	43,162	-0,075745	22,110000	48,250000
1,500011	0,000000	45,268	-0,075794	22,120000	48,260000
1,542032	0,118021	47,369	-0,075745	22,120000	48,250000
1,584037	-0,141162	49,472	-0,075854	22,110000	48,250000
1,626010	-0,054382	51,574	-0,075817	22,110000	48,250000
1,668067	-0,141162	53,680	-0,075854	22,120000	48,250000
1,710056	0,101822	55,782	-0,075751	22,110000	48,260000
1,752039	0,172403	57,888	-0,075722	22,110000	48,275000
1,794090	-0,023141	59,991	-0,075804	22,120000	48,275000
1,836017	0,008099	62,094	-0,075791	22,110000	48,260000
1,877993	0,109921	64,199	-0,075748	22,110000	48,260000
1,920001	-0,172403	66,308	-0,075867	22,120000	48,250000
1,962011	-0,023141	68,414	-0,075804	22,120000	48,220000
2,004001	-0,274224	70,519	-0,075910	22,120000	48,260000
2,045988	0,070581	72,622	-0,075765	22,120000	48,260000
2,088002	-0,274224	74,725	-0,075910	22,110000	48,285000
2,129976	-0,047440	76,830	-0,075814	22,120000	48,250000
2,171995	-0,077523	78,933	-0,075827	22,110000	48,275000
2,213992	-0,164303	81,042	-0,075864	22,120000	48,250000
2,255988	-0,187444	83,147	-0,075874	22,110000	48,235000
2,297976	-0,219842	85,251	-0,075887	22,120000	48,260000
2,340005	-0,148104	87,356	-0,075857	22,120000	48,260000
2,382012	0,000000	89,460	-0,075794	22,110000	48,250000
2,423976	-0,008099	91,566	-0,075798	22,120000	48,260000
2,465981	-0,031241	93,672	-0,075808	22,110000	48,260000
2,507952	-0,031241	95,776	-0,075808	22,110000	48,260000
2,549998	-0,077523	97,885	-0,075827	22,110000	48,260000
2,591962	-0,141162	99,988	-0,075854	22,110000	48,260000
2,633978	0,086780	102,093	-0,075758	22,110000	48,235000
2,675992	-0,093722	104,194	-0,075834	22,110000	48,235000
2,717960	-0,164303	106,296	-0,075864	22,120000	48,250000
2,759980	-204,962419	108,402	-0,162289	22,120000	48,250000
2,801992	-188,675578	110,509	-0,155416	22,120000	48,250000
2,843976	-166,447210	112,613	-0,146035	22,110000	48,275000
2,885978	-144,046440	114,717	-0,136582	22,110000	48,275000
2,927969	-120,586956	116,819	-0,126682	22,120000	48,235000
2,969910	-96,194877	118,924	-0,116389	22,110000	48,250000
3,011912	-70,400437	121,025	-0,105503	22,110000	48,250000
3,053952	-46,714168	123,128	-0,095508	22,120000	48,260000
3,095890	-21,366354	125,233	-0,084811	22,110000	48,250000
3,137921	5,885987	127,341	-0,073311	22,120000	48,250000
3,179910	29,760858	129,446	-0,063235	22,120000	48,260000
3,221880	55,712659	131,548	-0,052284	22,110000	48,250000
3,263937	81,232875	133,656	-0,041514	22,120000	48,250000
3,305893	108,587039	135,760	-0,029971	22,120000	48,275000
3,347881	133,903612	137,863	-0,019287	22,110000	48,250000
3,389887	160,231459	139,969	-0,008177	22,110000	48,250000
3,431880	187,892245	142,074	0,003496	22,110000	48,285000
3,473829	213,906528	144,180	0,014474	22,110000	48,250000
3,515848	240,375537	146,282	0,025644	22,110000	48,235000
3,557886	267,023891	148,385	0,036890	22,110000	48,235000
3,599854	294,943859	150,491	0,048672	22,110000	48,260000
3,641858	321,091204	152,595	0,059706	22,110000	48,250000
3,683790	347,786998	154,700	0,070972	22,110000	48,235000
3,725888	376,050615	156,805	0,082899	22,120000	48,260000
3,767767	402,222258	158,910	0,093943	22,110000	48,235000
3,809774	430,556455	161,013	0,105900	22,110000	48,235000
3,851752	456,216677	163,118	0,116729	22,110000	48,250000
3,893773	485,069239	165,221	0,128905	22,110000	48,235000
3,935812	511,482709	167,328	0,140051	22,110000	48,250000
3,977809	538,743150	169,432	0,151555	22,120000	48,235000
4,019780	567,720675	171,536	0,163784	22,120000	48,235000
4,061772	594,808714	173,639	0,175215	22,120000	48,260000
4,103713	621,708151	175,741	0,186566	22,110000	48,275000
4,117706	630,933427	177,843	0,190459	22,110000	48,275000
4,117717	629,875870	179,949	0,190013	22,110000	48,275000
4,117739	629,114522	182,053	0,189692	22,110000	48,250000
4,117781	628,465408	184,154	0,189418	22,120000	48,250000
4,117750	627,892661	186,259	0,189176	22,120000	48,260000
4,079766	599,848887	188,362	0,177342	22,110000	48,250000
4,037781	570,189851	190,465	0,164826	22,110000	48,275000
3,995748	541,894994	192,568	0,152885	22,110000	48,235000
3,953817	512,956809	194,672	0,140673	22,110000	48,275000
3,911831	482,764366	196,776	0,127932	22,110000	48,260000
3,869773	454,085364	198,879	0,115830	22,120000	48,250000
3,827778	426,378295	200,984	0,104137	22,120000	48,260000
3,785802	398,671227	203,088	0,092445	22,110000	48,250000
3,743854	368,447543	205,191	0,079690	22,110000	48,250000
3,701813	340,136487	207,296	0,067743	22,120000	48,250000
3,659851	312,954726	209,402	0,056272	22,110000	48,260000
3,617784	284,942193	211,506	0,044451	22,120000	48,260000
3,575830	255,017032	213,611	0,031823	22,110000	48,260000
3,533829	227,551790	215,718	0,020232	22,110000	48,260000
3,491864	199,202551	217,826	0,008269	22,110000	48,250000
3,449850	170,218084	219,932	-0,003962	22,110000	48,250000
3,407887	141,404862	222,033	-0,016122	22,120000	48,235000
3,365858	113,251166	224,137	-0,028002	22,110000	48,260000
3,323829	86,351729	226,238	-0,039354	22,110000	48,235000
3,281892	56,566573	228,349	-0,051923	22,110000	48,235000
3,239950	28,765782	230,453	-0,063655	22,120000	48,260000
3,197870	-0,509108	232,554	-0,076009	22,120000	48,260000
3,155933	-27,667728	234,660	-0,087470	22,120000	48,250000
3,113940	-57,436685	236,764	-0,100033	22,110000	48,275000
3,071895	-84,061898	238,867	-0,111269	22,120000	48,260000
3,029946	-111,588465	240,970	-0,122885	22,120000	48,260000
2,987910	-138,645263	243,074	-0,134303	22,120000	48,235000
2,945886	-166,384729	245,179	-0,146009	22,120000	48,235000
2,903915	-195,502259	247,286	-0,158296	22,110000	48,250000
2,861954	-222,802040	249,390	-0,169817	22,110000	48,235000
2,819954	-249,881979	251,494	-0,181245	22,120000	48,250000
2,777952	-276,155445	253,600	-0,192332	22,120000	48,235000
2,736009	-303,094222	255,702	-0,203700	22,120000	48,235000
2,693953	-330,190360	257,805	-0,215135	22,110000	48,260000
2,651979	-355,600655	259,911	-0,225858	22,110000	48,260000
2,610031	-381,419394	262,016	-0,236753	22,120000	48,235000
2,568001	-409,087122	264,121	-0,248429	22,120000	48,235000
2,525977	-433,517384	266,224	-0,258739	22,110000	48,220000
2,483979	-458,897595	268,334	-0,269449	22,110000	48,275000
2,441954	-485,373547	270,440	-0,280622	22,120000	48,275000
2,399962	-509,052873	272,542	-0,290615	22,120000	48,275000
2,358008	-534,087122	274,648	-0,301179	22,120000	48,235000
2,316008	-558,863346	276,753	-0,311635	22,120000	48,235000
2,274003	-583,646512	278,855	-0,322093	22,100000	48,255000
2,232031	-607,490142	280,961	-0,332155	22,120000	48,260000
2,190031	-630,611763	283,068	-0,341913	22,120000	48,260000
2,148018	-654,399854	285,172	-0,351951	22,120000	48,250000
2,106016	-678,251583	287,273	-0,362017	22,120000	48,250000
2,064001	-699,280074	289,380	-0,370891	22,110000	48,260000
2,022003	-723,060066	291,482	-0,380926	22,110000	48,260000
1,980015	-744,779325	293,583	-0,390091	22,110000	48,275000
1,937999	-765,746492	295,693	-0,398939	22,110000	48,275000
1,895992	-785,011617	297,796	-0,407069	22,110000	48,250000
1,854049	-807,491067	299,903	-0,416556	22,110000	48,250000
1,811978	-826,545607	302,005	-0,424597	22,110000	48,250000
1,770020	-844,973017	304,108	-0,432373	22,120000	48,250000
1,728049	-864,410545	306,212	-0,440576	22,120000	48,250000
1,686047	-878,165729	308,317	-0,446380	22,110000	48,220000
1,644053	-896,703060	310,424	-0,454203	22,120000	48,260000
1,602005	-910,904871	312,526	-0,460196	22,110000	48,250000
1,560037	-920,883396	314,630	-0,464407	22,120000	48,260000
1,518031	-930,171153	316,733	-0,468327	22,110000	48,235000
1,476007	-939,208984	318,842	-0,472141	22,110000	48,235000
1,434064	-938,644337	320,946	-0,471902	22,110000	48,275000
1,392048	-926,511358	323,054	-0,466782	22,110000	48,250000
1,350013	-897,980459	325,162	-0,454742	22,110000	48,275000
1,308038	-0,814573	327,267	-0,076138	22,110000	48,235000
1,266042	-0,477868	329,374	-0,075996	22,110000	48,235000
1,224053	-0,336706	331,478	-0,075937	22,110000	48,260000
1,182084	-0,258025	333,584	-0,075903	22,120000	48,260000
1,140056	-0,093722	335,689	-0,075834	22,120000	48,235000
1,098020	0,024298	337,794	-0,075784	22,110000	48,260000
1,056088	-0,234884	339,900	-0,075894	22,110000	48,250000
1,014087	-0,195544	342,004	-0,075877	22,130000	48,235000
0,972093	-0,116864	344,110	-0,075844	22,110000	48,235000
0,930036	-0,023141	346,215	-0,075804	22,110000	48,235000
0,888014	-0,133062	348,320	-0,075851	22,110000	48,260000
0,846044	-0,062481	350,423	-0,075821	22,120000	48,260000
0,804057	-0,203643	352,528	-0,075880	22,120000	48,220000
0,762043	0,039340	354,630	-0,075778	22,120000	48,220000
0,720009	-0,133062	356,736	-0,075851	22,110000	48,250000
0,678039	-0,116864	358,840	-0,075844	22,120000	48,275000
0,636087	-0,015042	360,946	-0,075801	22,110000	48,260000
0,618036	0,016199	361,849	-0,075788	22,110000	48,260000