Folder: Nanoindentation_Analysis/Nanoindentation Datenauswertung/data/PDMS (part 2)

File: AR-PDMS-125-10-125-2,5um-diff_LF-5x5-1
Quasi static measurement routine
Tip parameters (shape,radius, material...)
26.08.2022

Piezo position[nm]	MEMS displ.[nm]	Time[ms]	Cap [pf]	Temp [°C]	Rh [%]
eoh

X-Pos [um]	Y-Pos [um]
0,000000	0,000000

POC
2,279980
1,590006	0,306709	0,643	-0,135292	22,650000	54,920000
1,602004	0,407310	1,247	-0,135252	22,650000	54,920000
1,613903	0,249048	1,847	-0,135315	22,650000	54,920000
1,625986	0,323885	2,447	-0,135285	22,650000	54,920000
1,638014	0,198748	3,047	-0,135335	22,650000	54,920000
1,649975	0,298121	3,649	-0,135295	22,650000	54,920000
1,661967	0,290760	4,249	-0,135298	22,670000	54,920000
1,673984	0,306709	4,851	-0,135292	22,670000	54,920000
1,685963	0,282173	5,453	-0,135302	22,670000	54,920000
1,697968	0,107962	6,056	-0,135371	22,670000	54,880000
1,709949	0,007361	6,657	-0,135411	22,670000	54,880000
1,721954	0,082198	7,259	-0,135381	22,670000	54,880000
1,733976	0,249048	7,860	-0,135315	22,670000	54,880000
1,745984	0,115323	8,460	-0,135368	22,670000	54,880000
1,757959	0,198748	9,060	-0,135335	22,670000	54,880000
1,769939	0,240460	9,663	-0,135318	22,670000	54,880000
1,781977	0,107962	10,263	-0,135371	22,650000	54,890000
1,793924	0,141086	10,866	-0,135358	22,650000	54,890000
1,805967	0,115323	11,468	-0,135368	22,650000	54,890000
1,817907	0,024537	12,068	-0,135404	22,650000	54,890000
1,829976	0,007361	12,669	-0,135411	22,650000	54,890000
1,841953	-0,166850	13,269	-0,135480	22,650000	54,890000
1,853961	0,157035	13,870	-0,135352	22,660000	54,920000
1,865948	0,073610	14,472	-0,135385	22,660000	54,920000
1,877960	-0,116550	15,074	-0,135460	22,660000	54,920000
1,889929	-0,092013	15,676	-0,135451	22,660000	54,920000
1,901917	-0,274812	16,276	-0,135523	22,660000	54,920000
1,913968	-0,257636	16,878	-0,135517	22,660000	54,920000
1,925881	-0,149674	17,479	-0,135474	22,660000	54,920000
1,937934	-0,250275	18,083	-0,135514	22,660000	54,905000
1,949969	-0,175438	18,684	-0,135484	22,660000	54,905000
1,961926	-0,233099	19,286	-0,135507	22,660000	54,905000
1,974040	-0,033125	19,888	-0,135427	22,660000	54,920000
1,985990	-0,274812	20,490	-0,135523	22,660000	54,920000
1,997960	-0,307936	21,091	-0,135537	22,660000	54,920000
2,009937	-0,532447	21,693	-0,135626	22,660000	54,920000
2,021977	-0,433074	22,296	-0,135586	22,660000	54,920000
2,033956	-0,664946	22,897	-0,135679	22,660000	54,920000
2,045978	-0,466198	23,498	-0,135600	22,660000	54,920000
2,057971	-0,598697	24,101	-0,135652	22,660000	54,920000
2,069931	-0,706658	24,703	-0,135695	22,660000	54,920000
2,081953	-0,790083	25,303	-0,135729	22,660000	54,920000
2,093956	-70,025420	25,903	-0,163284	22,660000	54,930000
2,106008	-66,535068	26,505	-0,161895	22,660000	54,930000
2,117974	-61,690287	27,106	-0,159967	22,660000	54,930000
2,129930	-57,900587	27,708	-0,158458	22,660000	54,930000
2,141976	-54,683819	28,309	-0,157178	22,650000	54,930000
2,153916	-50,030426	28,909	-0,155326	22,650000	54,930000
2,165927	-45,118169	29,510	-0,153371	22,650000	54,930000
2,177909	-40,539612	30,111	-0,151549	22,660000	54,975000
2,189959	-36,276352	30,713	-0,149852	22,660000	54,975000
2,201936	-31,223010	31,315	-0,147841	22,660000	54,975000
2,213937	-25,123174	31,916	-0,145413	22,670000	54,945000
2,225987	-20,743365	32,517	-0,143670	22,670000	54,945000
2,237932	-16,023722	33,120	-0,141792	22,670000	54,945000
2,249976	-12,009510	33,721	-0,140194	22,670000	54,945000
2,261958	-6,757420	34,325	-0,138104	22,650000	54,945000
2,273922	-1,396141	34,929	-0,135970	22,650000	54,945000
2,285964	3,930787	35,531	-0,133850	22,650000	54,945000
2,297936	9,282251	36,132	-0,131720	22,660000	54,945000
2,309960	15,848284	36,736	-0,129106	22,660000	54,945000
2,321936	21,316298	37,338	-0,126930	22,660000	54,945000
2,334003	26,801488	37,938	-0,124747	22,660000	54,945000
2,345943	31,762818	38,538	-0,122772	22,660000	54,945000
2,357952	36,633362	39,142	-0,120834	22,660000	54,945000
2,369942	41,851101	39,743	-0,118757	22,660000	54,945000
2,381901	47,236917	40,345	-0,116614	22,680000	54,935000
2,393931	53,037404	40,946	-0,114305	22,680000	54,935000
2,405921	57,991373	41,547	-0,112333	22,680000	54,935000
2,417900	63,375962	42,149	-0,110190	22,660000	54,920000
2,429947	69,077075	42,751	-0,107921	22,660000	54,920000
2,441982	75,302047	43,353	-0,105444	22,660000	54,920000
2,453919	50,784931	43,957	-0,115202	22,650000	54,930000
2,465901	46,439473	44,557	-0,116931	22,650000	54,930000
2,477957	51,233953	45,158	-0,115023	22,650000	54,930000
2,479961	50,577595	45,761	-0,115284	22,650000	54,930000
2,479884	48,799908	46,361	-0,115992	22,650000	54,930000
2,479948	47,494553	46,965	-0,116511	22,650000	54,930000
2,479918	46,589147	47,566	-0,116872	22,650000	54,930000
2,479932	46,297160	48,167	-0,116988	22,670000	54,905000
2,479967	46,164661	48,767	-0,117041	22,670000	54,905000
2,479858	45,499715	49,369	-0,117305	22,670000	54,905000
2,479893	45,233492	49,969	-0,117411	22,670000	54,905000
2,479904	44,851945	50,569	-0,117563	22,670000	54,905000
2,479910	45,275204	51,170	-0,117395	22,670000	54,905000
2,479946	44,827409	51,771	-0,117573	22,670000	54,905000
2,479927	44,726808	52,371	-0,117613	22,660000	54,880000
2,479961	44,336674	52,971	-0,117768	22,660000	54,880000
2,479886	44,361210	53,573	-0,117758	22,660000	54,880000
2,479921	44,294961	54,174	-0,117785	22,660000	54,930000
2,479943	43,779689	54,777	-0,117990	22,660000	54,930000
2,477912	43,788277	55,378	-0,117986	22,660000	54,930000
2,465882	35,876404	55,979	-0,121135	22,660000	54,930000
2,453945	26,735239	56,581	-0,124773	22,660000	54,930000
2,441904	20,376541	57,183	-0,127304	22,660000	54,930000
2,429892	12,913690	57,785	-0,130274	22,660000	54,930000
2,417949	4,487771	58,387	-0,133628	22,670000	54,920000
2,405915	-1,895464	58,989	-0,136168	22,670000	54,920000
2,393960	-9,782801	59,592	-0,139308	22,670000	54,920000
2,381908	-15,948885	60,193	-0,141762	22,650000	54,930000
2,369925	-23,511110	60,795	-0,144771	22,650000	54,930000
2,357881	-31,024262	61,397	-0,147762	22,650000	54,930000
2,345935	-36,334014	61,999	-0,149875	22,650000	54,930000
2,333857	-43,373606	62,603	-0,152677	22,650000	54,930000
2,321863	-50,886758	63,203	-0,155667	22,650000	54,930000
2,309913	-56,138849	63,803	-0,157757	22,650000	54,930000
2,297883	-63,467975	64,404	-0,160674	22,660000	54,890000
2,285922	-68,812078	65,006	-0,162801	22,660000	54,890000
2,273919	-76,333818	65,606	-0,165795	22,660000	54,890000
2,261916	-82,026343	66,206	-0,168061	22,660000	54,890000
2,249952	-87,361858	66,807	-0,170184	22,660000	54,890000
2,237874	-93,204057	67,408	-0,172509	22,660000	54,890000
2,225935	-98,755496	68,008	-0,174719	22,660000	54,880000
2,213892	-103,085005	68,611	-0,176442	22,660000	54,880000
2,201900	-106,933594	69,215	-0,177974	22,660000	54,880000
2,189913	-108,021798	69,816	-0,178407	22,660000	54,880000
2,177904	-114,213646	70,416	-0,180871	22,660000	54,920000
2,165948	-119,141852	71,017	-0,182833	22,660000	54,920000
2,153867	-123,529022	71,618	-0,184579	22,660000	54,920000
2,141950	-129,928205	72,219	-0,187125	22,650000	54,930000
2,129917	-134,873587	72,821	-0,189094	22,650000	54,930000
2,117975	-140,075377	73,422	-0,191164	22,650000	54,930000
2,105905	-146,209563	74,024	-0,193605	22,660000	54,905000
2,093980	-151,253092	74,626	-0,195613	22,660000	54,905000
2,081904	-156,090511	75,229	-0,197538	22,660000	54,905000
2,069923	-161,450563	75,830	-0,199671	22,660000	54,920000
[...]
3,373942	458,962292	168,566	0,047541	22,670000	54,975000
3,343960	434,803412	170,071	0,037925	22,680000	55,005000
3,313967	413,626973	171,576	0,029497	22,680000	55,005000
3,283950	390,823748	173,080	0,020421	22,670000	54,975000
3,253986	370,412855	174,582	0,012298	22,670000	54,975000
3,223940	348,780033	176,085	0,003688	22,670000	55,000000
3,193943	327,056425	177,590	-0,004958	22,670000	55,000000
3,163957	305,107078	179,092	-0,013694	22,650000	55,000000
3,133969	284,264339	180,602	-0,021989	22,660000	55,000000
3,103988	261,369101	182,110	-0,031102	22,660000	55,000000
3,073995	240,815896	183,616	-0,039282	22,670000	55,015000
3,044032	218,818703	185,119	-0,048037	22,670000	55,015000
3,013961	198,889958	186,623	-0,055968	22,670000	54,985000
2,983952	178,944037	188,126	-0,063907	22,670000	54,985000
2,954008	158,857029	189,631	-0,071901	22,660000	54,960000
2,924009	137,756654	191,138	-0,080299	22,660000	54,960000
2,894013	118,184919	192,640	-0,088089	22,660000	54,960000
2,863994	99,918538	194,142	-0,095359	22,670000	55,015000
2,833984	80,621614	195,646	-0,103039	22,650000	55,000000
2,804045	61,182377	197,151	-0,110776	22,650000	55,000000
2,774064	45,459230	198,656	-0,117034	22,650000	55,000000
2,743983	25,962331	200,160	-0,124793	22,660000	55,000000
2,714025	8,634481	201,667	-0,131690	22,660000	55,000000
2,684036	-5,609100	203,171	-0,137359	22,660000	55,000000
2,653988	-19,371761	204,674	-0,142836	22,670000	55,000000
2,624006	-28,538690	206,176	-0,146485	22,650000	55,015000
2,594040	-31,489233	207,678	-0,147659	22,650000	55,040000
2,564061	83,097372	209,184	-0,102054	22,650000	55,040000
2,534046	71,363900	210,690	-0,106724	22,680000	55,005000
2,504089	56,279935	212,192	-0,112727	22,680000	55,005000
2,474046	41,162845	213,695	-0,118744	22,670000	54,985000
2,444076	25,380810	215,201	-0,125025	22,670000	54,985000
2,414026	9,125216	216,711	-0,131495	22,670000	54,985000
2,384028	-5,418940	218,213	-0,137283	22,660000	54,975000
2,354031	-22,721027	219,721	-0,144169	22,660000	54,975000
2,324058	-39,126296	221,225	-0,150699	22,660000	54,975000
2,294024	-53,935449	222,730	-0,156593	22,660000	54,985000
2,263982	-69,692947	224,233	-0,162864	22,680000	54,980000
2,234024	-86,289602	225,738	-0,169470	22,660000	55,000000
2,204068	-101,215305	227,243	-0,175410	22,660000	55,000000
2,174071	-118,043832	228,749	-0,182108	22,670000	55,000000
2,144048	-131,224973	230,253	-0,187354	22,670000	55,000000
2,114086	-144,662522	231,759	-0,192702	22,670000	54,960000
2,084042	-157,777412	233,261	-0,197922	22,670000	54,960000
2,054030	-166,570155	234,763	-0,201421	22,670000	55,000000
2,024023	-175,270886	236,265	-0,204884	22,670000	55,000000
1,994017	-187,163847	237,772	-0,209618	22,670000	54,985000
1,964030	-197,526941	239,275	-0,213742	22,670000	54,985000
1,934038	-206,227672	240,776	-0,217205	22,670000	54,985000
1,904035	-144,206138	242,279	-0,192521	22,660000	54,975000
1,874049	-145,802253	243,782	-0,193156	22,660000	54,975000
1,844085	-148,028963	245,288	-0,194042	22,660000	54,975000
1,814075	-150,056925	246,792	-0,194849	22,680000	55,030000
1,783986	-129,320921	248,295	-0,186596	22,680000	54,965000
1,754029	-0,133725	249,800	-0,135180	22,670000	54,985000
1,724051	0,000000	251,304	-0,135126	22,670000	54,985000
1,694052	0,049073	252,809	-0,135107	22,660000	55,000000
1,664050	0,165623	254,314	-0,135061	22,660000	55,000000
1,634061	-0,083425	255,816	-0,135160	22,660000	55,000000
1,604054	-0,008588	257,322	-0,135130	22,660000	55,000000
1,574055	0,107962	258,825	-0,135083	22,660000	55,025000
1,544111	0,090786	260,333	-0,135090	22,660000	55,025000
1,532044	0,033125	260,933	-0,135113	22,660000	55,025000

File: EM-PDMS-50-10-50-0,3um
Quasi static measurement routine
Tip parameters (shape,radius, material...)
12.08.2022

Piezo position[nm]	MEMS displ.[nm]	Time[ms]	Cap [pf]	Temp [°C]	Rh [%]
eoh
2,050077	0,194353	0,176	-0,106559	22,340000	47,360000
2,053954	0,909379	0,877	-0,106268	22,340000	47,360000
2,057848	0,974163	1,531	-0,106241	22,340000	47,360000
2,061752	0,454689	2,191	-0,106453	22,350000	47,335000
2,065639	0,389905	2,846	-0,106479	22,350000	47,335000
2,069530	1,040147	3,506	-0,106214	22,350000	47,335000
2,073409	0,974163	4,172	-0,106241	22,340000	47,350000
2,077345	1,040147	4,825	-0,106214	22,340000	47,350000
2,081247	1,169716	5,479	-0,106162	22,340000	47,350000
2,085119	1,169716	6,136	-0,106162	22,340000	47,350000
2,089034	0,259137	6,790	-0,106532	22,340000	47,350000
2,092927	1,364068	7,441	-0,106083	22,340000	47,350000
2,096880	1,364068	8,096	-0,106083	22,350000	47,335000
2,100758	0,844595	8,747	-0,106294	22,350000	47,335000
2,104658	0,844595	9,401	-0,106294	22,350000	47,335000
2,108564	0,715026	10,054	-0,106347	22,340000	47,350000
2,112476	0,584258	10,705	-0,106400	22,340000	47,350000
2,116329	0,779810	11,359	-0,106320	22,340000	47,350000
2,120273	1,040147	12,013	-0,106214	22,340000	47,350000
2,124123	0,650242	12,669	-0,106373	22,340000	47,350000
2,128045	0,974163	13,322	-0,106241	22,340000	47,350000
2,131966	0,715026	13,976	-0,106347	22,340000	47,335000
2,135852	1,040147	14,631	-0,106214	22,340000	47,335000
2,139802	0,259137	15,285	-0,106532	22,340000	47,335000
2,143622	0,844595	15,939	-0,106294	22,340000	47,320000
2,147530	1,169716	16,593	-0,106162	22,340000	47,320000
2,151467	1,169716	17,248	-0,106162	22,340000	47,320000
2,155356	0,844595	17,903	-0,106294	22,340000	47,335000
2,159188	1,690389	18,558	-0,105950	22,340000	47,335000
2,163144	0,974163	19,214	-0,106241	22,340000	47,335000
2,167058	0,844595	19,867	-0,106294	22,340000	47,335000
2,170915	0,844595	20,527	-0,106294	22,340000	47,335000
2,174831	0,650242	21,180	-0,106373	22,340000	47,335000
2,178744	0,715026	21,834	-0,106347	22,340000	47,350000
2,182637	0,909379	22,487	-0,106268	22,340000	47,350000
2,186572	0,194353	23,146	-0,106559	22,340000	47,350000
2,190422	0,323921	23,799	-0,106506	22,340000	47,350000
2,194332	1,300484	24,457	-0,106108	22,340000	47,350000
2,198244	0,064784	25,118	-0,106611	22,340000	47,350000
2,202106	0,519474	25,773	-0,106426	22,340000	47,335000
2,206005	0,909379	26,425	-0,106268	22,340000	47,335000
2,209914	0,259137	27,079	-0,106532	22,340000	47,335000
2,213816	0,715026	27,732	-0,106347	22,350000	47,350000
2,217680	0,650242	28,387	-0,106373	22,350000	47,350000
2,221631	0,454689	29,041	-0,106453	22,350000	47,350000
2,225545	-2,926088	29,695	-0,107829	22,350000	47,350000
2,229385	-1,625605	30,360	-0,107299	22,340000	47,335000
2,233351	-1,821157	31,014	-0,107379	22,340000	47,335000
2,237243	0,000000	31,668	-0,106638	22,340000	47,335000
2,241141	1,040147	32,339	-0,106214	22,340000	47,310000
2,245036	2,145078	32,994	-0,105765	22,340000	47,310000
2,249012	3,314794	33,648	-0,105289	22,340000	47,310000
2,252855	4,419725	34,304	-0,104839	22,340000	47,320000
2,256840	5,005183	34,971	-0,104601	22,340000	47,320000
2,260635	6,501219	35,644	-0,103992	22,340000	47,320000
2,264545	7,411797	36,301	-0,103621	22,340000	47,320000
2,268497	8,256392	36,967	-0,103277	22,340000	47,320000
2,272349	9,817212	37,628	-0,102642	22,340000	47,320000
2,276213	10,986928	38,299	-0,102166	22,340000	47,335000
2,280150	12,352196	38,952	-0,101610	22,340000	47,335000
2,284048	12,872869	39,631	-0,101398	22,340000	47,335000
2,287977	15,212300	40,296	-0,100446	22,340000	47,335000
2,291828	15,668189	40,955	-0,100261	22,340000	47,335000
2,295709	17,944036	41,619	-0,099334	22,340000	47,335000
2,299684	19,503657	42,283	-0,098700	22,340000	47,335000
2,303556	20,089114	42,951	-0,098461	22,340000	47,335000
2,307449	21,779503	43,617	-0,097773	22,340000	47,335000
2,311354	23,339124	44,284	-0,097139	22,350000	47,350000
2,315236	24,835160	44,937	-0,096530	22,350000	47,350000
2,319218	25,940091	45,623	-0,096080	22,350000	47,350000
2,323045	26,785886	46,281	-0,095736	22,350000	47,350000
2,326919	28,930964	46,945	-0,094863	22,350000	47,350000
2,330855	29,386853	47,602	-0,094677	22,350000	47,350000
2,334781	30,750921	48,281	-0,094122	22,350000	47,335000
2,338611	31,531931	48,936	-0,093804	22,350000	47,335000
2,342549	33,026768	49,598	-0,093196	22,350000	47,335000
2,346445	34,847925	50,253	-0,092455	22,350000	47,335000
2,350064	35,498167	50,926	-0,092190	22,350000	47,335000
2,350035	34,521604	51,583	-0,092587	22,350000	47,335000
2,350062	34,652373	52,246	-0,092534	22,340000	47,320000
2,350084	34,521604	52,901	-0,092587	22,340000	47,320000
2,350039	33,677010	53,568	-0,092931	22,340000	47,320000
2,350079	33,222320	54,236	-0,093116	22,340000	47,320000
2,350036	33,351889	54,901	-0,093063	22,340000	47,320000
2,350024	33,612226	55,559	-0,092958	22,340000	47,320000
2,350071	32,572078	56,212	-0,093381	22,350000	47,350000
2,350009	32,246958	56,867	-0,093513	22,350000	47,350000
2,350036	32,182173	57,521	-0,093540	22,350000	47,350000
2,350010	31,726284	58,193	-0,093725	22,340000	47,335000
2,350074	32,051405	58,875	-0,093593	22,340000	47,335000
2,350009	31,661500	59,530	-0,093751	22,340000	47,335000
2,350083	31,531931	60,186	-0,093804	22,340000	47,335000
2,350061	31,336379	60,860	-0,093884	22,340000	47,335000
2,347369	30,556569	61,513	-0,094201	22,340000	47,335000
2,343462	28,086369	62,168	-0,095207	22,350000	47,360000
2,339547	26,721101	62,820	-0,095762	22,350000	47,360000
2,335640	24,835160	63,481	-0,096530	22,350000	47,360000
2,331758	23,079987	64,148	-0,097244	22,340000	47,320000
2,327802	20,479020	64,821	-0,098303	22,340000	47,320000
2,323983	18,918199	65,474	-0,098938	22,340000	47,320000
2,320037	17,227810	66,144	-0,099626	22,350000	47,335000
2,316142	16,512784	66,825	-0,099917	22,350000	47,335000
2,312226	15,147516	67,484	-0,100473	22,350000	47,335000
2,308330	14,302922	68,156	-0,100816	22,350000	47,335000
2,304474	12,612533	68,820	-0,101504	22,350000	47,335000
2,300545	11,897507	69,490	-0,101795	22,350000	47,335000
2,296621	10,726591	70,163	-0,102272	22,350000	47,335000
2,292760	8,906634	70,828	-0,103013	22,350000	47,335000
2,288772	7,996055	71,484	-0,103383	22,350000	47,335000
2,284971	6,761556	72,141	-0,103886	22,350000	47,350000
2,281026	5,721409	72,816	-0,104309	22,350000	47,350000
2,277152	3,770683	73,477	-0,105103	22,350000	47,350000
2,273247	2,730536	74,132	-0,105526	22,340000	47,360000
2,269331	1,300484	74,808	-0,106108	22,340000	47,360000
2,265415	0,000000	75,473	-0,106638	22,340000	47,360000
2,261576	-1,106131	76,133	-0,107088	22,340000	47,360000
2,257652	-2,731736	76,803	-0,107750	22,340000	47,360000
2,253781	-2,990873	77,474	-0,107855	22,340000	47,360000
2,249874	-4,747245	78,136	-0,108570	22,350000	47,350000
2,245995	-5,201935	78,815	-0,108755	22,350000	47,350000
2,242043	-5,852177	79,489	-0,109020	22,350000	47,350000
2,238190	-7,282229	80,155	-0,109602	22,350000	47,335000
2,234219	-7,867687	80,824	-0,109840	22,350000	47,335000
2,230287	-8,126824	81,483	-0,109945	22,350000	47,335000
2,226449	-8,907834	82,138	-0,110263	22,350000	47,335000
2,222562	-9,558075	82,802	-0,110528	22,350000	47,335000
2,218580	-9,752428	83,464	-0,110607	22,350000	47,335000
2,214790	-10,467454	84,128	-0,110898	22,350000	47,350000
2,210838	-10,988128	84,793	-0,111110	22,350000	47,350000
2,207017	-10,988128	85,458	-0,111110	22,350000	47,350000
2,203057	-12,418180	86,135	-0,111692	22,350000	47,350000
2,199179	-13,523111	86,788	-0,112142	22,350000	47,350000
2,195266	-12,288611	87,442	-0,111639	22,350000	47,350000
2,191340	-13,263974	88,113	-0,112036	22,340000	47,360000
2,187476	-13,587895	88,782	-0,112168	22,340000	47,360000
2,183520	-13,979000	89,439	-0,112327	22,340000	47,360000
2,179670	-14,823595	90,095	-0,112671	22,340000	47,335000
2,175761	-15,213500	90,750	-0,112830	22,340000	47,335000
2,171843	-14,823595	91,423	-0,112671	22,340000	47,335000
2,167944	-16,124079	92,124	-0,113200	22,340000	47,350000
2,164054	-16,253647	92,786	-0,113253	22,340000	47,350000
2,160115	1,104931	93,449	-0,106188	22,340000	47,350000
2,156196	-0,065984	94,120	-0,106665	22,340000	47,335000
2,152367	0,909379	94,788	-0,106268	22,340000	47,335000
2,148420	0,323921	95,446	-0,106506	22,340000	47,335000
2,144564	0,974163	96,105	-0,106241	22,340000	47,335000
2,140618	0,909379	96,762	-0,106268	22,340000	47,335000
2,136724	1,040147	97,455	-0,106214	22,340000	47,335000
2,132783	1,364068	98,146	-0,106083	22,340000	47,335000
2,128899	0,779810	98,801	-0,106320	22,340000	47,335000
2,125055	0,909379	99,453	-0,106268	22,340000	47,335000
2,121146	1,104931	100,109	-0,106188	22,340000	47,320000
2,117281	0,715026	100,777	-0,106347	22,340000	47,320000
2,113381	0,974163	101,448	-0,106241	22,340000	47,320000
2,109455	1,040147	102,102	-0,106214	22,340000	47,350000
2,105500	0,650242	102,764	-0,106373	22,340000	47,350000
2,101673	0,909379	103,452	-0,106268	22,340000	47,350000
2,097758	0,909379	104,121	-0,106268	22,340000	47,350000
2,093853	0,974163	104,807	-0,106241	22,340000	47,350000
2,089936	0,650242	105,463	-0,106373	22,340000	47,350000
2,086040	0,779810	106,138	-0,106320	22,340000	47,360000
2,082180	0,779810	106,808	-0,106320	22,340000	47,360000
2,078274	1,104931	107,462	-0,106188	22,340000	47,360000
2,074310	0,715026	108,119	-0,106347	22,340000	47,360000
2,070493	0,584258	108,806	-0,106400	22,340000	47,360000
2,066552	0,323921	109,467	-0,106506	22,340000	47,360000
2,062682	0,650242	110,144	-0,106373	22,350000	47,320000
2,058772	1,040147	110,816	-0,106214	22,350000	47,320000
2,054848	0,779810	111,468	-0,106320	22,350000	47,320000
2,050990	1,234500	112,148	-0,106135	22,340000	47,335000
2,050120	0,064784	112,299	-0,106611	22,340000	47,335000