Folder: Nanoindentation_Analysis/Nanoindentation Datenauswertung/data/S_calib (part 4)

File: S_calib_1808-3
Quasi static measurement routine
Tip parameters (shape,radius, material...)
18.08.2022

Piezo position[nm]	MEMS displ.[nm]	Time[ms]	Cap [pf]	Temp [°C]	Rh [%]
eoh
2,659989	0,182229	0,189	-0,137835	22,430000	56,235000
2,673325	11,260840	0,601	-0,133205	22,430000	56,260000
2,686669	24,007551	1,003	-0,127876	22,430000	56,260000
2,700000	38,014681	1,406	-0,122021	22,430000	56,260000
2,713287	50,983338	1,806	-0,116601	22,430000	56,260000
2,726654	63,999888	2,215	-0,111160	22,430000	56,260000
2,739980	75,996654	2,616	-0,106145	22,430000	56,275000
2,753299	87,874271	3,018	-0,101180	22,430000	56,275000
2,766608	100,297408	3,430	-0,095987	22,430000	56,275000
2,779910	114,817350	3,833	-0,089918	22,430000	56,275000
2,793357	126,512737	4,236	-0,085029	22,430000	56,275000
2,806552	138,952228	4,639	-0,079830	22,430000	56,275000
2,819949	151,043614	5,043	-0,074775	22,430000	56,275000
2,833318	163,932837	5,444	-0,069388	22,430000	56,275000
2,846596	177,005458	5,847	-0,063923	22,430000	56,275000
2,859977	189,492842	6,251	-0,058704	22,430000	56,275000
2,873309	203,561883	6,653	-0,052823	22,430000	56,235000
2,886641	216,435921	7,055	-0,047441	22,430000	56,235000
2,899936	227,095170	7,458	-0,042986	22,430000	56,235000
2,913314	239,882766	7,860	-0,037641	22,430000	56,235000
2,926605	252,867776	8,260	-0,032213	22,430000	56,235000
2,939957	266,414661	8,661	-0,026550	22,430000	56,235000
2,953300	278,022438	9,065	-0,021698	22,430000	56,235000
2,966571	290,193257	9,467	-0,016611	22,430000	56,235000
2,979893	302,465703	9,871	-0,011481	22,430000	56,235000
2,993265	315,989225	10,273	-0,005828	22,420000	56,250000
3,006574	328,024540	10,678	-0,000797	22,420000	56,250000
3,019910	341,816733	11,078	0,004968	22,420000	56,250000
3,033335	354,232861	11,479	0,010158	22,420000	56,250000
3,046589	366,133840	11,882	0,015132	22,420000	56,250000
3,059939	378,122430	12,284	0,020144	22,420000	56,250000
3,073285	391,281493	12,686	0,025644	22,420000	56,250000
3,086630	405,436977	13,093	0,031561	22,420000	56,250000
3,099918	416,041324	13,494	0,035994	22,420000	56,250000
3,113259	430,228347	13,896	0,041924	22,420000	56,250000
3,126592	441,615347	14,299	0,046684	22,430000	56,250000
3,139953	454,015120	14,703	0,051867	22,430000	56,250000
3,153233	468,377364	15,106	0,057870	22,430000	56,250000
3,166572	478,617253	15,507	0,062150	22,430000	56,250000
3,179914	492,986506	15,909	0,068157	22,430000	56,250000
3,193211	505,402633	16,313	0,073347	22,430000	56,250000
3,206597	517,706620	16,715	0,078490	22,430000	56,250000
3,219920	529,148522	17,118	0,083272	22,430000	56,250000
3,233250	541,967657	17,519	0,088631	22,430000	56,250000
3,246532	554,035680	17,927	0,093675	22,430000	56,250000
3,259922	568,421286	18,331	0,099688	22,430000	56,250000
3,273190	579,380747	18,732	0,104270	22,430000	56,250000
3,286590	593,457966	19,133	0,110154	22,430000	56,250000
3,299870	605,786483	19,538	0,115307	22,430000	56,250000
3,313199	616,911820	19,941	0,119958	22,430000	56,250000
3,326586	630,862879	20,346	0,125789	22,420000	56,260000
3,339898	642,835115	20,748	0,130793	22,420000	56,260000
3,353214	655,859842	21,149	0,136238	22,420000	56,260000
3,366553	667,989776	21,552	0,141308	22,420000	56,260000
3,379855	679,891924	21,954	0,146283	22,420000	56,260000
3,393199	692,346600	22,357	0,151489	22,430000	56,275000
3,406642	704,437986	22,759	0,156543	22,430000	56,275000
3,419912	716,844769	23,161	0,161729	22,430000	56,275000
3,433189	731,215190	23,565	0,167736	22,430000	56,275000
3,446554	742,015784	23,966	0,172251	22,430000	56,275000
3,459882	754,352478	24,378	0,177408	22,430000	56,275000
3,473180	766,633102	24,781	0,182541	22,430000	56,275000
3,486468	779,856413	25,191	0,188068	22,430000	56,275000
3,499852	791,772578	25,591	0,193049	22,430000	56,275000
3,513145	804,757588	26,009	0,198477	22,430000	56,275000
3,526546	816,833788	26,411	0,203525	22,430000	56,260000
3,539875	829,263934	26,815	0,208721	22,430000	56,260000
3,553138	842,076060	27,217	0,214076	22,430000	56,260000
3,566509	856,216358	27,622	0,219987	22,430000	56,260000
3,579785	867,119748	28,024	0,224544	22,430000	56,260000
3,593184	879,472796	28,425	0,229708	22,420000	56,235000
3,606509	891,793137	28,832	0,234858	22,420000	56,235000
3,619848	906,075948	29,236	0,240828	22,420000	56,235000
3,633184	917,225815	29,650	0,245489	22,420000	56,235000
3,646482	929,712031	30,050	0,250708	22,420000	56,235000
3,659756	943,409605	30,455	0,256434	22,420000	56,260000
3,659788	943,147942	30,859	0,256324	22,420000	56,260000
3,659803	942,808014	31,261	0,256182	22,420000	56,260000
3,659769	942,554529	31,664	0,256076	22,420000	56,260000
3,659893	942,103628	32,066	0,255888	22,420000	56,260000
3,659865	941,549931	32,478	0,255656	22,420000	56,260000
3,659793	941,818602	32,890	0,255769	22,420000	56,260000
3,659804	941,384055	33,303	0,255587	22,420000	56,260000
3,659799	941,438958	33,714	0,255610	22,420000	56,260000
3,659853	941,208835	34,116	0,255514	22,420000	56,260000
3,659787	940,694855	34,519	0,255299	22,430000	56,235000
3,659808	940,687846	34,922	0,255296	22,430000	56,235000
3,659830	940,338573	35,324	0,255150	22,430000	56,235000
3,659777	940,101441	35,736	0,255051	22,430000	56,235000
3,659814	939,840946	36,145	0,254942	22,430000	56,235000
3,659806	940,038362	36,555	0,255024	22,420000	56,250000
3,659815	939,911035	36,956	0,254971	22,420000	56,250000
3,659809	939,476488	37,361	0,254790	22,420000	56,250000
3,659789	939,627177	37,766	0,254853	22,420000	56,250000
3,659767	939,555921	38,167	0,254823	22,420000	56,250000
3,659818	939,088666	38,572	0,254627	22,420000	56,250000
3,659814	939,002224	38,977	0,254591	22,420000	56,250000
3,659753	939,357338	39,388	0,254740	22,420000	56,250000
3,659830	938,970684	39,794	0,254578	22,420000	56,250000
3,659785	938,249944	40,199	0,254277	22,420000	56,250000
3,659831	939,025587	40,608	0,254601	22,420000	56,250000
3,646438	925,858347	41,011	0,249097	22,420000	56,250000
3,633143	913,070752	41,415	0,243752	22,420000	56,250000
3,619824	900,561173	41,819	0,238523	22,420000	56,250000
3,606534	888,382177	42,220	0,233432	22,420000	56,250000
3,593144	874,313135	42,621	0,227551	22,420000	56,250000
3,579830	861,984618	43,027	0,222398	22,420000	56,250000
3,566515	850,043922	43,439	0,217407	22,420000	56,250000
3,553173	837,628962	43,860	0,212217	22,420000	56,250000
3,539817	824,707031	44,263	0,206816	22,420000	56,250000
3,526495	810,305071	44,667	0,200796	22,430000	56,275000
3,513161	798,878355	45,068	0,196020	22,430000	56,275000
3,499819	785,711115	45,472	0,190516	22,430000	56,275000
3,486523	773,224899	45,874	0,185296	22,430000	56,275000
3,473141	760,097376	46,275	0,179809	22,430000	56,275000
3,459831	747,072649	46,676	0,174365	22,430000	56,275000
3,446543	734,901830	47,078	0,169277	22,430000	56,275000
3,433183	722,574480	47,480	0,164125	22,430000	56,275000
3,419844	709,889681	47,885	0,158822	22,430000	56,275000
3,406551	696,951396	48,299	0,153414	22,430000	56,235000
3,393199	683,982740	48,715	0,147993	22,430000	56,235000
3,379777	671,258224	49,118	0,142674	22,430000	56,235000
3,366512	657,046669	49,521	0,136734	22,430000	56,235000
3,353181	645,944696	49,927	0,132093	22,430000	56,235000
3,339834	631,804398	50,328	0,126183	22,430000	56,235000
3,326512	620,045931	50,729	0,121268	22,430000	56,235000
3,313217	606,593666	51,131	0,115645	22,430000	56,235000
3,299817	595,499869	51,534	0,111007	22,430000	56,235000
3,286492	582,743814	51,936	0,105675	22,430000	56,235000
3,273197	568,563799	52,348	0,099748	22,420000	56,250000
3,259881	555,744664	52,765	0,094390	22,420000	56,250000
3,246593	544,777026	53,172	0,089805	22,420000	56,250000
3,233192	531,831732	53,575	0,084394	22,420000	56,250000
3,219912	519,360702	53,978	0,079181	22,420000	56,250000
3,206571	506,264719	54,380	0,073707	22,420000	56,275000
3,193203	492,266933	54,783	0,067856	22,420000	56,275000
3,179905	481,481525	55,200	0,063348	22,420000	56,275000
3,166586	467,404306	55,606	0,057463	22,420000	56,275000
3,153232	455,266195	56,008	0,052390	22,420000	56,275000
3,139943	443,807940	56,420	0,047600	22,430000	56,260000
3,126575	430,925725	56,823	0,042215	22,430000	56,260000
3,113258	417,441920	57,226	0,036579	22,430000	56,260000
3,099948	404,543352	57,634	0,031187	22,430000	56,260000
3,086591	391,732394	58,036	0,025833	22,430000	56,260000
3,073255	381,532222	58,438	0,021569	22,440000	56,250000
3,059877	368,396522	58,855	0,016078	22,440000	56,250000
3,046592	355,253813	59,261	0,010584	22,440000	56,250000
3,033221	342,363421	59,686	0,005196	22,440000	56,250000
3,019945	330,200779	60,089	0,000112	22,440000	56,250000
3,006552	317,968049	60,505	-0,005001	22,430000	56,250000
2,993232	305,195640	60,918	-0,010340	22,430000	56,250000
2,979912	292,646344	61,333	-0,015585	22,430000	56,250000
2,966645	278,355357	61,736	-0,021559	22,430000	56,250000
2,953287	265,963760	62,138	-0,026739	22,430000	56,250000
2,939948	253,738038	62,541	-0,031849	22,430000	56,250000
2,926608	241,464423	62,944	-0,036979	22,430000	56,250000
2,913228	228,741075	63,346	-0,042298	22,430000	56,250000
2,899927	216,301585	63,762	-0,047498	22,430000	56,250000
2,886501	203,893634	64,181	-0,052684	22,430000	56,250000
2,873373	192,009009	64,586	-0,057652	22,430000	56,250000
2,859937	179,418828	64,987	-0,062915	22,430000	56,250000
2,846655	167,098488	65,389	-0,068064	22,430000	56,250000
2,833325	154,199920	65,790	-0,073456	22,430000	56,250000
2,819953	141,745243	66,210	-0,078662	22,430000	56,250000
2,806598	129,267204	66,618	-0,083878	22,420000	56,260000
2,793314	115,133915	67,038	-0,089786	22,420000	56,260000
2,779961	102,947910	67,444	-0,094879	22,420000	56,260000
2,766620	91,910184	67,878	-0,099493	22,420000	56,260000
2,753315	79,533773	68,282	-0,104667	22,430000	56,250000
2,739961	66,714638	68,692	-0,110025	22,430000	56,250000
2,726588	54,069556	69,096	-0,115311	22,430000	56,250000
2,713237	42,176753	69,498	-0,120282	22,430000	56,250000
2,699969	29,357618	69,912	-0,125640	22,430000	56,250000
2,686600	17,163436	70,334	-0,130737	22,430000	56,275000
2,673359	3,253261	70,737	-0,136552	22,430000	56,275000
2,659976	-8,751682	71,141	-0,141570	22,430000	56,275000

File: S_calib_1808-4
Quasi static measurement routine
Tip parameters (shape,radius, material...)
18.08.2022

Piezo position[nm]	MEMS displ.[nm]	Time[ms]	Cap [pf]	Temp [°C]	Rh [%]
eoh
2,659928	0,046725	0,198	-0,139036	22,420000	56,235000
2,679977	19,694789	0,399	-0,130823	22,420000	56,235000
2,700025	34,222909	0,601	-0,124750	22,420000	56,235000
2,719945	53,261205	0,802	-0,116792	22,420000	56,235000
2,739965	72,363749	1,003	-0,108808	22,420000	56,235000
2,759945	91,552734	1,205	-0,100787	22,420000	56,235000
2,779973	112,878243	1,406	-0,091873	22,420000	56,235000
2,799934	134,749271	1,606	-0,082730	22,420000	56,235000
2,819943	153,661408	1,806	-0,074825	22,430000	56,260000
2,840005	172,676342	2,007	-0,066877	22,430000	56,260000
2,859949	191,739169	2,221	-0,058909	22,430000	56,260000
2,879946	211,077676	2,424	-0,050825	22,430000	56,260000
2,899922	226,318359	2,634	-0,044455	22,430000	56,260000
2,919969	245,293576	2,835	-0,036523	22,430000	56,260000
2,939933	263,865786	3,035	-0,028760	22,430000	56,260000
2,959916	282,453181	3,237	-0,020990	22,430000	56,260000
2,979953	301,032399	3,437	-0,013224	22,430000	56,260000
2,999908	320,791436	3,637	-0,004965	22,430000	56,260000
3,019952	339,450088	3,838	0,002834	22,430000	56,260000
3,039952	363,188967	4,038	0,012757	22,430000	56,260000
3,059917	382,323051	4,239	0,020755	22,430000	56,260000
3,079927	401,235188	4,439	0,028661	22,430000	56,260000
3,099927	414,908231	4,640	0,034376	22,430000	56,260000
3,119911	433,891625	4,841	0,042311	22,430000	56,260000
3,139913	457,607142	5,043	0,052224	22,430000	56,260000
3,159922	471,953032	5,246	0,058221	22,430000	56,260000
3,179942	491,150194	5,447	0,066245	22,430000	56,260000
3,199909	511,739776	5,647	0,074852	22,430000	56,260000
3,219920	528,989655	5,847	0,082062	22,430000	56,260000
3,239884	548,242888	6,050	0,090110	22,430000	56,260000
3,259953	567,889784	6,252	0,098322	22,430000	56,260000
3,279880	586,240047	6,453	0,105993	22,430000	56,260000
3,299893	604,598488	6,654	0,113667	22,430000	56,260000
3,319896	628,360730	6,854	0,123599	22,430000	56,260000
3,339859	642,683257	7,055	0,129586	22,430000	56,260000
3,359896	661,176034	7,256	0,137316	22,430000	56,260000
3,379852	680,127888	7,457	0,145238	22,430000	56,260000
3,399848	699,166184	7,660	0,153196	22,430000	56,260000
3,419829	718,212657	7,861	0,161157	22,430000	56,250000
3,439860	736,816406	8,061	0,168934	22,430000	56,250000
3,459890	758,252888	8,263	0,177894	22,430000	56,250000
3,479846	774,995795	8,465	0,184893	22,430000	56,250000
3,499868	793,520111	8,667	0,192636	22,430000	56,250000
3,519765	814,497514	8,868	0,201404	22,430000	56,250000
3,539792	834,470320	9,085	0,209753	22,430000	56,250000
3,559840	850,082470	9,285	0,216279	22,430000	56,250000
3,579799	868,614963	9,486	0,224025	22,430000	56,250000
3,599824	889,623907	9,687	0,232807	22,430000	56,250000
3,619797	906,692724	9,888	0,239942	22,430000	56,250000
3,639803	925,691303	10,088	0,247883	22,430000	56,250000
3,659757	944,010027	10,288	0,255541	22,430000	56,250000
3,659856	948,385868	10,489	0,257370	22,430000	56,250000
3,659834	948,124206	10,691	0,257260	22,430000	56,250000
3,659824	947,585695	10,892	0,257035	22,430000	56,250000
3,659833	947,214227	11,092	0,256880	22,430000	56,250000
3,659770	947,325200	11,293	0,256926	22,430000	56,250000
3,659754	946,945555	11,493	0,256768	22,430000	56,250000
3,659813	947,064705	11,693	0,256817	22,430000	56,250000
3,659832	946,692070	11,893	0,256662	22,430000	56,250000
3,659807	946,438584	12,094	0,256556	22,430000	56,250000
3,659842	946,232992	12,294	0,256470	22,430000	56,250000
3,659781	945,727189	12,496	0,256258	22,430000	56,250000
3,659753	945,410624	12,697	0,256126	22,430000	56,250000
3,659735	946,304248	12,897	0,256500	22,430000	56,250000
3,659802	945,702658	13,099	0,256248	22,430000	56,250000
3,659801	945,307827	13,301	0,256083	22,430000	56,250000
3,659777	945,307827	13,501	0,256083	22,430000	56,250000
3,659771	944,920006	13,705	0,255921	22,430000	56,250000
3,659728	944,895475	13,905	0,255911	22,420000	56,250000
3,659787	944,658343	14,106	0,255812	22,420000	56,250000
3,659764	945,006448	14,306	0,255957	22,420000	56,250000
3,659832	944,540361	14,507	0,255762	22,420000	56,250000
3,659757	944,784502	14,708	0,255864	22,420000	56,250000
3,659805	944,286876	14,909	0,255656	22,420000	56,250000
3,659819	944,073107	15,109	0,255567	22,420000	56,250000
3,659794	944,112823	15,310	0,255583	22,420000	56,250000
3,659804	943,844152	15,510	0,255471	22,420000	56,250000
3,659851	943,804435	15,716	0,255455	22,420000	56,250000
3,659817	943,534596	15,916	0,255342	22,430000	56,260000
3,659778	943,345357	16,116	0,255263	22,430000	56,260000
3,659790	943,503056	16,317	0,255329	22,430000	56,260000
3,659828	943,376897	16,519	0,255276	22,430000	56,260000
3,659848	943,139765	16,720	0,255177	22,430000	56,260000
3,659776	943,313818	16,920	0,255250	22,430000	56,260000
3,659797	943,043978	17,120	0,255137	22,430000	56,260000
3,659773	942,894456	17,321	0,255074	22,430000	56,260000
3,659749	942,775307	17,524	0,255024	22,430000	56,260000
3,659758	942,450564	17,725	0,254889	22,430000	56,260000
3,659766	942,647980	17,925	0,254971	22,430000	56,220000
3,659722	942,308052	18,127	0,254829	22,430000	56,220000
3,659824	942,538175	18,328	0,254925	22,430000	56,220000
3,659751	942,236795	18,528	0,254799	22,430000	56,220000
3,659754	942,054566	18,728	0,254723	22,430000	56,220000
3,659745	942,102460	18,928	0,254743	22,430000	56,220000
3,659795	941,683098	19,128	0,254568	22,430000	56,220000
3,659813	942,079097	19,328	0,254733	22,430000	56,220000
3,659785	941,817434	19,528	0,254624	22,430000	56,220000
3,659841	941,699452	19,730	0,254575	22,430000	56,250000
3,659747	941,778886	19,930	0,254608	22,430000	56,250000
3,659787	941,588479	20,131	0,254528	22,430000	56,250000
3,659819	941,200658	20,331	0,254366	22,430000	56,250000
3,639734	925,548791	20,539	0,247824	22,430000	56,250000
3,619788	906,945041	20,739	0,240047	22,430000	56,250000
3,599749	887,867029	20,940	0,232073	22,430000	56,250000
3,579811	868,891812	21,143	0,224141	22,430000	56,250000
3,559838	849,734366	21,345	0,216133	22,430000	56,250000
3,539795	825,655558	21,546	0,206068	22,430000	56,250000
3,519823	806,229441	21,747	0,197948	22,430000	56,250000
3,499855	787,317303	21,947	0,190043	22,430000	56,250000
3,479877	768,080424	22,147	0,182002	22,430000	56,250000
3,459836	748,455723	22,350	0,173799	22,430000	56,250000
3,439811	734,537371	22,550	0,167981	22,430000	56,250000
3,419832	715,363571	22,750	0,159966	22,430000	56,250000
3,399817	696,008710	22,950	0,151876	22,430000	56,250000
3,379868	672,665829	23,150	0,142119	22,430000	56,250000
3,359845	653,279428	23,350	0,134015	22,430000	56,250000
3,339825	634,430370	23,552	0,126136	22,430000	56,250000
3,319844	615,962124	23,754	0,118417	22,430000	56,235000
3,299862	597,951789	23,955	0,110888	22,430000	56,235000
3,279860	578,706732	24,156	0,102844	22,430000	56,235000
3,259863	560,238487	24,357	0,095124	22,430000	56,235000
3,239846	543,549314	24,557	0,088148	22,430000	56,235000
3,219926	523,932790	24,758	0,079948	22,430000	56,235000
3,199843	504,325611	24,958	0,071752	22,430000	56,235000
3,179833	486,315275	25,160	0,064224	22,430000	56,235000
3,159856	467,419492	25,364	0,056326	22,430000	56,235000
3,139925	443,680613	25,565	0,046403	22,430000	56,235000
3,119899	424,791838	25,767	0,038507	22,430000	56,235000
3,099873	405,611029	25,969	0,030490	22,430000	56,235000
3,079884	388,598282	26,174	0,023378	22,430000	56,235000
3,059905	370,248019	26,375	0,015708	22,430000	56,235000
3,039882	351,256448	26,575	0,007770	22,430000	56,235000
3,019938	332,320948	26,775	-0,000146	22,430000	56,235000
2,999891	313,574686	26,975	-0,007981	22,430000	56,235000
2,979876	294,528213	27,175	-0,015943	22,430000	56,235000
2,959944	275,062379	27,375	-0,024080	22,430000	56,235000
2,939906	256,768186	27,575	-0,031727	22,430000	56,235000
2,919902	236,779026	27,775	-0,040082	22,430000	56,235000
2,899893	219,283839	27,975	-0,047395	22,430000	56,235000
2,879963	200,648550	28,175	-0,055185	22,430000	56,235000
2,859947	180,589302	28,375	-0,063569	22,430000	56,235000
2,839931	162,666576	28,576	-0,071061	22,430000	56,235000
2,819894	144,371215	28,776	-0,078708	22,430000	56,235000
2,799881	125,324742	28,976	-0,086670	22,430000	56,235000
2,779943	107,219787	29,177	-0,094238	22,430000	56,235000
2,759931	83,813827	29,379	-0,104021	22,430000	56,235000
2,739943	69,641989	29,579	-0,109945	22,430000	56,235000
2,719937	51,164399	29,782	-0,117669	22,430000	56,250000
2,699950	31,445079	29,985	-0,125912	22,430000	56,250000
2,679908	13,459274	30,185	-0,133430	22,430000	56,250000
2,659932	-5,436509	30,392	-0,141328	22,430000	56,250000