Folder: Nanoindentation_Analysis/Nanoindentation Datenauswertung/data/S_calib (part 6)

File: S_calib_2308-2x2
Quasi static measurement routine
Tip parameters (shape,radius, material...)
23.08.2022

Piezo position[nm]	MEMS displ.[nm]	Time[ms]	Cap [pf]	Temp [°C]	Rh [%]
eoh

X-Pos [um]	Y-Pos [um]
0,000013	0,000000

POC
2,615900
2,330824	0,231355	0,892	-0,134601	22,350000	51,645000
2,346821	0,181431	1,696	-0,134621	22,350000	51,645000
2,362889	0,264232	2,502	-0,134587	22,350000	51,645000
2,378790	0,148554	3,309	-0,134634	22,350000	51,645000
2,394876	0,321462	4,114	-0,134564	22,350000	51,645000
2,410932	0,215526	4,918	-0,134607	22,350000	51,645000
2,426799	0,181431	5,726	-0,134621	22,340000	51,655000
2,442832	0,321462	6,530	-0,134564	22,340000	51,655000
2,458836	0,091324	7,332	-0,134657	22,340000	51,655000
2,474838	0,058448	8,142	-0,134670	22,340000	51,645000
2,490851	-0,015830	8,944	-0,134700	22,340000	51,645000
2,506863	-0,255708	9,749	-0,134796	22,340000	51,645000
2,522842	-0,271538	10,556	-0,134802	22,340000	51,645000
2,538824	-0,371386	11,400	-0,134842	22,340000	51,645000
2,554855	-0,527246	12,208	-0,134905	22,340000	51,645000
2,570850	-0,758602	13,009	-0,134998	22,340000	51,645000
2,586833	-4,528474	13,845	-0,136509	22,340000	51,645000
2,602826	10,566845	14,665	-0,130456	22,340000	51,645000
2,618827	25,512391	15,472	-0,124463	22,340000	51,655000
2,634818	41,762050	16,276	-0,117947	22,340000	51,655000
2,650814	57,301814	17,097	-0,111715	22,340000	51,655000
2,666810	73,527120	17,902	-0,105209	22,350000	51,670000
2,682891	88,902500	18,707	-0,099043	22,350000	51,670000
2,698806	105,019434	19,517	-0,092581	22,350000	51,670000
2,714807	120,733323	20,322	-0,086279	22,350000	51,670000
2,730840	136,693179	21,130	-0,079879	22,350000	51,670000
2,746880	152,678606	21,938	-0,073469	22,350000	51,630000
2,762823	168,383972	22,742	-0,067171	22,350000	51,630000
2,778885	184,030890	23,544	-0,060897	22,350000	51,670000
2,794880	199,959087	24,349	-0,054510	22,350000	51,670000
2,810803	216,703115	25,151	-0,047795	22,350000	51,670000
2,826839	231,739986	25,959	-0,041766	22,340000	51,630000
2,842817	248,789647	26,767	-0,034929	22,340000	51,630000
2,858777	263,785117	27,592	-0,028916	22,350000	51,645000
2,874811	279,523360	28,399	-0,022604	22,350000	51,645000
2,890750	296,424466	29,202	-0,015827	22,350000	51,645000
2,906821	312,409893	30,022	-0,009417	22,350000	51,645000
2,922848	328,040982	30,828	-0,003149	22,350000	51,645000
2,938769	343,193530	31,635	0,002927	22,340000	51,645000
2,954795	358,931772	32,454	0,009238	22,340000	51,645000
2,970799	374,867275	33,257	0,015628	22,340000	51,645000
2,986868	390,704148	34,060	0,021979	22,350000	51,645000
3,002859	407,110885	34,863	0,028558	22,350000	51,645000
3,018816	422,534971	35,673	0,034743	22,350000	51,645000
3,034815	439,477478	36,478	0,041537	22,350000	51,645000
3,050831	454,695780	37,285	0,047640	22,350000	51,645000
3,066764	470,112560	38,092	0,053822	22,350000	51,620000
3,082772	486,880942	38,897	0,060546	22,350000	51,620000
3,098758	502,776262	39,699	0,066920	22,350000	51,645000
3,114774	517,498977	40,511	0,072824	22,350000	51,645000
3,130804	533,665835	41,316	0,079307	22,350000	51,645000
3,146743	550,592513	42,119	0,086094	22,350000	51,645000
3,162763	565,380981	42,922	0,092024	22,350000	51,645000
3,178782	580,929269	43,730	0,098259	22,350000	51,655000
3,194757	596,907390	44,532	0,104667	22,350000	51,655000
3,210792	613,074248	45,353	0,111149	22,350000	51,655000
3,226760	629,241106	46,159	0,117632	22,340000	51,630000
3,242751	644,336425	46,967	0,123686	22,340000	51,630000
3,258789	660,881975	47,769	0,130320	22,350000	51,630000
3,274787	676,323108	48,589	0,136512	22,350000	51,630000
3,290681	692,647044	49,392	0,143058	22,350000	51,630000
3,306753	708,475394	50,207	0,149405	22,350000	51,630000
3,322714	723,883650	51,011	0,155584	22,350000	51,630000
3,338749	741,031942	51,813	0,162460	22,350000	51,645000
3,354700	755,500166	52,619	0,168262	22,350000	51,645000
3,370736	771,402792	53,425	0,174639	22,350000	51,645000
3,386761	787,141034	54,229	0,180950	22,350000	51,645000
3,402775	803,250662	55,052	0,187410	22,350000	51,645000
3,418700	819,706106	55,860	0,194009	22,350000	51,620000
3,434718	835,617256	56,667	0,200389	22,350000	51,620000
3,450706	851,594159	57,470	0,206796	22,350000	51,645000
3,466730	867,480956	58,272	0,213167	22,350000	51,645000
3,482728	882,096517	59,078	0,219027	22,350000	51,645000
3,498692	898,231716	59,887	0,225498	22,350000	51,645000
3,514728	914,217143	60,696	0,231908	22,350000	51,645000
3,530703	931,208356	61,504	0,238721	22,340000	51,645000
3,546706	946,105196	62,309	0,244695	22,340000	51,645000
3,562693	961,513453	63,112	0,250874	22,340000	51,645000
3,578675	977,341802	63,921	0,257221	22,340000	51,645000
3,594745	994,151584	64,724	0,263961	22,340000	51,645000
3,610652	1010,154058	65,545	0,270378	22,340000	51,645000
3,615669	1014,798210	66,349	0,272241	22,340000	51,645000
3,615699	1014,426824	67,155	0,272092	22,340000	51,645000
3,615687	1015,128195	67,965	0,272373	22,360000	51,660000
3,615681	1014,393947	68,772	0,272079	22,360000	51,660000
3,615661	1014,616778	69,578	0,272168	22,340000	51,645000
3,615659	1013,923930	70,385	0,271890	22,340000	51,645000
3,615788	1014,369594	71,189	0,272069	22,340000	51,645000
3,615692	1013,593945	71,996	0,271758	22,340000	51,655000
3,615691	1013,453914	72,798	0,271702	22,340000	51,655000
3,615729	1013,494097	73,615	0,271718	22,340000	51,655000
3,615691	1013,106881	74,435	0,271562	22,340000	51,655000
3,615705	1013,074004	75,242	0,271549	22,340000	51,655000
3,612667	1011,308399	76,048	0,270841	22,350000	51,645000
3,596712	994,795726	76,859	0,264220	22,350000	51,645000
3,580720	977,523233	77,665	0,257293	22,340000	51,655000
3,564687	962,519239	78,469	0,251277	22,340000	51,655000
3,548757	944,752377	79,272	0,244152	22,340000	51,655000
3,532679	929,822660	80,073	0,238166	22,350000	51,655000
3,516707	913,185786	80,877	0,231494	22,350000	51,655000
3,500775	897,183311	81,680	0,225077	22,350000	51,655000
3,484712	881,543699	82,486	0,218806	22,350000	51,655000
3,468759	865,435289	83,291	0,212346	22,350000	51,655000
3,452739	848,427028	84,096	0,205526	22,350000	51,645000
3,436759	833,110096	84,901	0,199384	22,350000	51,645000
3,420746	817,437607	85,704	0,193099	22,340000	51,630000
3,404772	800,239392	86,507	0,186203	22,340000	51,630000
3,388741	784,600998	87,336	0,179932	22,340000	51,630000
3,372740	768,070059	88,141	0,173303	22,340000	51,655000
3,356735	751,895895	88,948	0,166817	22,340000	51,655000
3,340730	736,940607	89,758	0,160820	22,340000	51,655000
3,324784	721,079382	90,559	0,154459	22,340000	51,655000
3,308748	704,342659	91,372	0,147748	22,340000	51,655000
3,292793	688,068647	92,177	0,141222	22,340000	51,645000
3,276743	673,015946	92,982	0,135186	22,340000	51,645000
3,260804	657,236304	93,787	0,128858	22,350000	51,630000
3,244788	640,945244	94,589	0,122326	22,350000	51,630000
3,228750	624,019785	95,391	0,115539	22,350000	51,630000
3,212808	608,257189	96,197	0,109218	22,350000	51,630000
3,196790	592,081807	97,002	0,102731	22,350000	51,630000
3,180771	576,524996	97,810	0,096493	22,340000	51,655000
3,164822	560,869555	98,617	0,090215	22,340000	51,655000
3,148784	544,744097	99,422	0,083749	22,350000	51,655000
3,132810	529,080132	100,228	0,077468	22,350000	51,655000
3,116843	512,847520	101,056	0,070958	22,350000	51,655000
3,100842	497,117801	101,863	0,064651	22,360000	51,635000
[...]
3,288292	688,332879	92,872	0,141530	22,350000	51,645000
3,272277	671,770281	93,683	0,134888	22,350000	51,645000
3,256316	655,594899	94,496	0,128402	22,350000	51,630000
3,240294	640,228043	95,316	0,122240	22,350000	51,630000
3,224362	624,176863	96,144	0,115803	22,350000	51,630000
3,208336	608,125682	96,959	0,109367	22,340000	51,630000
3,192280	591,199004	97,766	0,102579	22,340000	51,630000
3,176284	575,634887	98,579	0,096338	22,340000	51,620000
3,160330	560,349614	99,390	0,090208	22,340000	51,620000
3,144309	543,968448	100,199	0,083640	22,340000	51,620000
3,128403	527,752883	101,014	0,077137	22,340000	51,620000
3,112383	512,707489	101,823	0,071104	22,340000	51,620000
3,096363	495,459350	102,637	0,064187	22,350000	51,620000
3,080312	480,851095	103,485	0,058330	22,350000	51,620000
3,064349	465,064146	104,294	0,051999	22,340000	51,605000
3,048360	448,600179	105,120	0,045397	22,340000	51,605000
3,032322	432,721906	105,926	0,039030	22,340000	51,605000
3,016310	416,843633	106,733	0,032663	22,350000	51,630000
3,000335	401,146791	107,545	0,026368	22,350000	51,630000
2,984352	385,235641	108,355	0,019988	22,350000	51,630000
2,968359	368,837428	109,191	0,013412	22,350000	51,630000
2,952378	352,886095	109,996	0,007016	22,350000	51,630000
2,936370	337,816348	110,800	0,000973	22,340000	51,645000
2,920365	322,044011	111,615	-0,005352	22,340000	51,645000
2,904310	305,695722	112,447	-0,011908	22,350000	51,655000
2,888330	289,240278	113,262	-0,018506	22,350000	51,655000
2,872346	274,393362	114,072	-0,024460	22,350000	51,655000
2,856369	258,375058	114,875	-0,030883	22,350000	51,630000
2,840383	242,695264	115,692	-0,037171	22,350000	51,630000
2,824328	226,782896	116,494	-0,043552	22,350000	51,630000
2,808327	210,805993	117,299	-0,049958	22,350000	51,630000
2,792339	194,861966	118,104	-0,056352	22,350000	51,630000
2,776318	178,992217	118,905	-0,062716	22,350000	51,645000
2,760403	162,989742	119,709	-0,069133	22,350000	51,645000
2,744315	146,740083	120,512	-0,075649	22,340000	51,630000
2,728395	131,538829	121,319	-0,081745	22,340000	51,630000
2,712381	115,767710	122,129	-0,088069	22,340000	51,630000
2,696325	99,039511	122,932	-0,094777	22,350000	51,630000
2,680399	83,252562	123,735	-0,101107	22,350000	51,630000
2,664352	68,240044	124,544	-0,107127	22,350000	51,630000
2,648365	52,460402	125,352	-0,113455	22,350000	51,630000
2,632392	36,962038	126,155	-0,119670	22,350000	51,630000
2,616400	19,829576	126,966	-0,126540	22,340000	51,655000
2,600388	4,132735	127,774	-0,132834	22,340000	51,655000
2,584354	-11,175674	128,591	-0,138973	22,350000	51,655000
2,568353	-26,319699	129,402	-0,145046	22,350000	51,655000
2,552314	-42,775142	130,208	-0,151645	22,350000	51,655000
2,536331	-58,159046	131,016	-0,157813	22,340000	51,645000
2,520431	-73,501549	131,821	-0,163966	22,340000	51,645000
2,504368	-89,124114	132,646	-0,170230	22,340000	51,645000
2,488383	-104,969510	133,454	-0,176584	22,340000	51,645000
2,472322	-121,820692	134,258	-0,183342	22,340000	51,645000
2,456383	-137,047518	135,064	-0,189448	22,350000	51,685000
2,440367	-154,038731	135,866	-0,196261	22,350000	51,685000
2,424331	-170,131312	136,669	-0,202714	22,350000	51,630000
2,408376	-186,702433	137,471	-0,209359	22,350000	51,630000
2,392356	-201,863505	138,273	-0,215439	22,350000	51,630000
2,376347	-218,211795	139,077	-0,221995	22,350000	51,620000
2,360395	-234,584437	139,885	-0,228560	22,350000	51,620000
2,344382	-249,959817	140,709	-0,234726	22,350000	51,620000
2,328407	-265,525152	141,513	-0,240967	22,350000	51,620000
2,312385	0,091324	142,322	-0,134455	22,340000	51,645000
2,311305	-0,024353	142,372	-0,134501	22,340000	51,645000

File: S_calib_2308-3x3
Quasi static measurement routine
Tip parameters (shape,radius, material...)
23.08.2022

Piezo position[nm]	MEMS displ.[nm]	Time[ms]	Cap [pf]	Temp [°C]	Rh [%]
eoh

X-Pos [um]	Y-Pos [um]
0,000242	0,000000

POC
2,591967
2,206840	0,230138	0,910	-0,134578	22,340000	51,645000
2,222895	0,007306	1,714	-0,134667	22,340000	51,645000
2,238867	0,131507	2,518	-0,134617	22,340000	51,645000
2,254818	0,157078	3,320	-0,134607	22,340000	51,645000
2,270848	0,122984	4,129	-0,134621	22,340000	51,645000
2,286849	0,000000	4,931	-0,134670	22,340000	51,645000
2,302840	0,041400	5,736	-0,134653	22,340000	51,645000
2,318861	0,271538	6,537	-0,134561	22,340000	51,620000
2,334837	0,263014	7,341	-0,134564	22,340000	51,620000
2,350811	0,189955	8,149	-0,134594	22,340000	51,620000
2,366834	0,098630	8,956	-0,134630	22,340000	51,655000
2,382866	0,148554	9,764	-0,134610	22,340000	51,655000
2,398852	-0,082801	10,566	-0,134703	22,350000	51,630000
2,414829	-0,041400	11,387	-0,134687	22,350000	51,630000
2,430841	-0,124201	12,192	-0,134720	22,350000	51,630000
2,446870	-0,074277	12,996	-0,134700	22,350000	51,630000
2,462861	-0,041400	13,797	-0,134687	22,350000	51,630000
2,478857	0,122984	14,603	-0,134621	22,350000	51,630000
2,494792	-0,024353	15,427	-0,134680	22,350000	51,630000
2,510862	-0,255708	16,231	-0,134772	22,350000	51,655000
2,526802	-0,140031	17,035	-0,134726	22,350000	51,655000
2,542746	-0,157078	17,842	-0,134733	22,350000	51,655000
2,558889	-0,487064	18,655	-0,134865	22,350000	51,620000
2,574862	-1,658452	19,462	-0,135335	22,350000	51,620000
2,590803	4,148564	20,283	-0,133006	22,350000	51,630000
2,606881	18,806743	21,093	-0,127128	22,350000	51,630000
2,622810	34,890800	21,896	-0,120679	22,350000	51,630000
2,638863	50,594948	22,700	-0,114381	22,350000	51,655000
2,654848	65,945975	23,503	-0,108226	22,350000	51,655000
2,670803	81,527139	24,325	-0,101978	22,350000	51,630000
2,686816	97,116827	25,136	-0,095726	22,350000	51,630000
2,702866	112,540913	25,947	-0,089541	22,350000	51,630000
2,718821	129,211882	26,753	-0,082856	22,350000	51,630000
2,734841	143,993045	27,557	-0,076929	22,350000	51,630000
2,750807	160,134332	28,371	-0,070456	22,340000	51,645000
2,766786	175,708190	29,182	-0,064211	22,340000	51,645000
2,782840	192,493619	29,987	-0,057480	22,340000	51,645000
2,798837	207,497613	30,801	-0,051463	22,340000	51,645000
2,814773	223,755796	31,614	-0,044944	22,340000	51,645000
2,830805	239,105605	32,418	-0,038789	22,340000	51,655000
2,846801	254,645369	33,222	-0,032557	22,340000	51,655000
2,862867	270,639320	34,027	-0,026144	22,340000	51,655000
2,878799	286,773301	34,833	-0,019674	22,340000	51,655000
2,894828	302,552944	35,637	-0,013346	22,340000	51,655000
2,910813	317,985554	36,440	-0,007158	22,350000	51,630000
2,926831	334,020905	37,245	-0,000728	22,350000	51,630000
2,942779	350,574979	38,050	0,005911	22,350000	51,630000
2,958775	365,670297	38,852	0,011964	22,350000	51,645000
2,974871	381,663030	39,658	0,018377	22,350000	51,645000
2,990821	397,904165	40,465	0,024890	22,350000	51,630000
3,006756	413,716685	41,270	0,031230	22,350000	51,630000
3,022742	429,199219	42,072	0,037439	22,350000	51,630000
3,038840	446,190432	42,878	0,044252	22,350000	51,630000
3,054837	462,127153	43,682	0,050643	22,350000	51,630000
3,070790	476,742714	44,495	0,056504	22,350000	51,620000
3,086791	492,646557	45,309	0,062881	22,350000	51,620000
3,102760	508,343399	46,129	0,069176	22,350000	51,620000
3,118760	525,640245	46,940	0,076112	22,350000	51,620000
3,134742	540,305730	47,753	0,081993	22,350000	51,620000
3,150760	556,736820	48,556	0,088582	22,340000	51,645000
3,166775	572,772171	49,364	0,095012	22,340000	51,645000
3,182755	588,146333	50,173	0,101177	22,340000	51,645000
3,198735	603,834652	50,990	0,107468	22,350000	51,630000
3,214788	620,010034	51,805	0,113954	22,350000	51,630000
3,230789	636,523925	52,614	0,120576	22,350000	51,645000
3,246741	651,980888	53,419	0,126774	22,350000	51,645000
3,262723	668,114869	54,226	0,133244	22,350000	51,630000
3,278722	683,903035	55,038	0,139575	22,350000	51,630000
3,294772	698,626968	55,845	0,145479	22,350000	51,630000
3,310722	715,114070	56,649	0,152091	22,360000	51,650000
3,326725	730,423697	57,465	0,158230	22,360000	51,650000
3,342757	747,242002	58,275	0,164974	22,340000	51,630000
3,358688	762,625906	59,079	0,171143	22,340000	51,630000
3,374757	778,034163	59,886	0,177322	22,340000	51,630000
3,390710	795,116700	60,689	0,184172	22,340000	51,655000
3,406737	810,384926	61,494	0,190294	22,340000	51,655000
3,422703	826,534737	62,306	0,196771	22,350000	51,645000
3,438689	841,530208	63,109	0,202784	22,350000	51,645000
3,454751	858,052622	63,912	0,209409	22,350000	51,645000
3,470669	874,012479	64,722	0,215809	22,350000	51,645000
3,486646	890,105060	65,528	0,222262	22,350000	51,645000
3,491674	894,774782	66,337	0,224135	22,350000	51,645000
3,491703	894,484979	67,158	0,224019	22,350000	51,645000
3,491701	893,990609	67,982	0,223820	22,350000	51,645000
3,491701	893,866408	68,798	0,223771	22,350000	51,645000
3,491683	893,702024	69,622	0,223705	22,350000	51,645000
3,491675	893,594870	70,429	0,223662	22,340000	51,645000
3,491707	893,603394	71,248	0,223665	22,340000	51,645000
3,491763	893,199131	72,056	0,223503	22,340000	51,645000
3,491670	892,976299	72,861	0,223414	22,350000	51,645000
3,491675	893,057883	73,678	0,223446	22,350000	51,645000
3,491705	893,240531	74,485	0,223520	22,350000	51,645000
3,491728	892,729115	75,303	0,223314	22,350000	51,645000
3,488695	890,154984	76,108	0,222282	22,350000	51,645000
3,472677	873,236830	76,954	0,215498	22,350000	51,645000
3,456682	857,961298	77,756	0,209373	22,350000	51,645000
3,440770	841,778610	78,565	0,202883	22,350000	51,645000
3,424768	825,743259	79,376	0,196453	22,350000	51,645000
3,408717	808,495120	80,180	0,189537	22,350000	51,645000
3,392690	792,105430	80,989	0,182964	22,350000	51,620000
3,376710	777,011329	81,796	0,176912	22,350000	51,620000
3,360736	760,126052	82,599	0,170141	22,350000	51,620000
3,344693	745,031951	83,404	0,164088	22,350000	51,620000
3,328731	728,897970	84,210	0,157618	22,350000	51,645000
3,312772	711,881186	85,018	0,150794	22,350000	51,645000
3,296731	696,695761	85,819	0,144705	22,350000	51,645000
3,280712	680,653104	86,620	0,138272	22,350000	51,645000
3,264673	664,313338	87,437	0,131720	22,350000	51,645000
3,248801	647,849371	88,238	0,125118	22,350000	51,655000
3,232775	631,162572	89,041	0,118426	22,350000	51,655000
3,216723	615,588714	89,846	0,112181	22,350000	51,655000
3,200792	599,776194	90,658	0,105840	22,340000	51,630000
3,184743	583,353628	91,461	0,099255	22,340000	51,630000
3,168766	566,948108	92,266	0,092676	22,350000	51,645000
3,152769	551,952638	93,079	0,086663	22,350000	51,645000
3,136788	536,008611	93,897	0,080270	22,350000	51,645000
3,120794	520,220445	94,705	0,073938	22,350000	51,630000
3,104785	504,416449	95,519	0,067601	22,350000	51,630000
3,088730	488,216714	96,336	0,061105	22,350000	51,645000
3,072732	471,554269	97,141	0,054423	22,350000	51,645000
3,056824	455,858644	97,951	0,048129	22,350000	51,645000
3,040841	440,086308	98,757	0,041805	22,340000	51,620000
3,024798	424,727975	99,590	0,035646	22,340000	51,620000
3,008790	408,372380	100,414	0,029087	22,350000	51,620000
2,992843	391,561380	101,229	0,022346	22,350000	51,620000
2,976816	376,697417	102,040	0,016386	22,350000	51,620000
2,960834	360,407575	102,848	0,009854	22,350000	51,620000
[...]
3,155396	571,946598	92,688	0,095015	22,360000	51,635000
3,139460	556,588266	93,509	0,088856	22,350000	51,620000
3,123467	540,429931	94,326	0,082376	22,350000	51,620000
3,107461	524,477381	95,136	0,075979	22,350000	51,620000
3,091435	508,879169	95,979	0,069725	22,340000	51,620000
3,075470	492,423726	96,781	0,063126	22,340000	51,620000
3,059454	475,688221	97,605	0,056415	22,350000	51,605000
3,043470	460,691533	98,436	0,050401	22,350000	51,605000
3,027476	444,970338	99,259	0,044097	22,350000	51,605000
3,011419	429,323420	100,065	0,037823	22,340000	51,630000
2,995496	412,850929	100,885	0,031217	22,340000	51,630000
2,979466	396,337038	101,704	0,024595	22,350000	51,620000
2,963464	381,301385	102,529	0,018566	22,350000	51,620000
2,947451	364,383231	103,337	0,011782	22,350000	51,620000
2,931452	349,287913	104,166	0,005729	22,350000	51,620000
2,915468	333,979504	104,983	-0,000410	22,350000	51,620000
2,899505	317,746893	105,788	-0,006919	22,350000	51,605000
2,883497	300,713061	106,609	-0,013750	22,350000	51,605000
2,867489	285,907546	107,414	-0,019687	22,340000	51,630000
2,851472	270,632014	108,235	-0,025813	22,340000	51,630000
2,835486	254,480985	109,056	-0,032289	22,340000	51,630000
2,819505	238,421281	109,873	-0,038729	22,350000	51,605000
2,803482	221,511651	110,695	-0,045510	22,350000	51,605000
2,787457	206,409026	111,525	-0,051566	22,350000	51,620000
2,771501	190,654954	112,343	-0,057883	22,350000	51,620000
2,755510	175,015343	113,165	-0,064155	22,350000	51,620000
2,739496	158,732807	114,000	-0,070684	22,350000	51,630000
2,723496	143,193043	114,809	-0,076916	22,350000	51,630000
2,707507	127,190569	115,624	-0,083333	22,340000	51,605000
2,691524	110,925080	116,435	-0,089855	22,340000	51,605000
2,675537	95,575271	117,241	-0,096010	22,340000	51,605000
2,659453	80,067166	118,056	-0,102229	22,340000	51,620000
2,643511	63,843078	118,860	-0,108735	22,340000	51,620000
2,627510	47,370587	119,685	-0,115340	22,340000	51,620000
2,611498	32,168115	120,504	-0,121437	22,340000	51,620000
2,595537	15,821043	121,309	-0,127992	22,340000	51,620000
2,579509	0,041400	122,127	-0,134319	22,340000	51,630000
2,563477	-15,268226	122,948	-0,140458	22,340000	51,630000
2,547488	-30,395203	123,758	-0,146524	22,340000	51,630000
2,531463	-46,150493	124,564	-0,152842	22,340000	51,630000
2,515475	-62,011719	125,367	-0,159203	22,340000	51,630000
2,499565	-77,922869	126,171	-0,165583	22,340000	51,630000
2,483516	-93,536910	127,007	-0,171844	22,340000	51,630000
2,467509	-109,580784	127,811	-0,178278	22,350000	51,630000
2,451562	-125,607612	128,617	-0,184705	22,350000	51,630000
2,435521	-141,625916	129,454	-0,191128	22,350000	51,630000
2,419539	-157,364158	130,259	-0,197439	22,350000	51,630000
2,403518	-174,372419	131,065	-0,204259	22,350000	51,630000
2,387502	-189,524967	131,871	-0,210335	22,340000	51,630000
2,371536	-206,186195	132,724	-0,217017	22,340000	51,630000
2,355492	-222,584408	133,556	-0,223592	22,340000	51,630000
2,339540	-237,827063	134,368	-0,229705	22,340000	51,630000
2,323542	-253,853891	135,198	-0,236131	22,340000	51,630000
2,307514	-269,583609	136,008	-0,242439	22,340000	51,605000
2,291539	-0,231355	136,820	-0,134429	22,340000	51,605000
2,275530	-0,321462	137,641	-0,134465	22,340000	51,620000
2,259541	-0,329986	138,469	-0,134468	22,340000	51,620000
2,243512	-0,404263	139,299	-0,134498	22,340000	51,620000
2,227455	-0,305632	140,119	-0,134458	22,350000	51,630000
2,211541	-0,272756	140,919	-0,134445	22,350000	51,630000
2,195476	-0,347033	141,728	-0,134475	22,350000	51,630000
2,179495	-0,124201	142,555	-0,134386	22,350000	51,630000
2,178487	-0,264232	142,605	-0,134442	22,350000	51,630000