Folder: Nanoindentation_Analysis/Nanoindentation Datenauswertung/data/S_calib (part 8)

File: S_calib_2408-3
Quasi static measurement routine
Tip parameters (shape,radius, material...)
24.08.2022

Piezo position[nm]	MEMS displ.[nm]	Time[ms]	Cap [pf]	Temp [°C]	Rh [%]
eoh
2,615846	-0,574160	0,191	-0,121268	22,360000	51,570000
2,635868	17,617384	1,192	-0,114027	22,350000	51,580000
2,655822	38,061401	2,193	-0,105891	22,350000	51,580000
2,675843	60,076996	3,197	-0,097128	22,360000	51,570000
2,695844	78,543352	4,201	-0,089779	22,360000	51,570000
2,715760	99,294078	5,202	-0,081520	22,350000	51,595000
2,735809	118,458503	6,204	-0,073893	22,350000	51,595000
2,755814	138,155376	7,207	-0,066053	22,360000	51,570000
2,775790	158,233796	8,207	-0,058062	22,360000	51,570000
2,795769	178,428765	9,209	-0,050024	22,360000	51,570000
2,815784	198,697344	10,211	-0,041958	22,360000	51,570000
2,835784	219,915495	11,213	-0,033513	22,350000	51,605000
2,855745	239,461467	12,216	-0,025733	22,350000	51,605000
2,875820	259,323964	13,217	-0,017828	22,350000	51,605000
2,895791	279,078498	14,236	-0,009966	22,350000	51,605000
2,915858	298,923818	15,240	-0,002067	22,340000	51,565000
2,935835	318,993650	16,243	0,005920	22,340000	51,565000
2,955798	338,856146	17,247	0,013826	22,350000	51,565000
2,975773	360,173671	18,251	0,022310	22,350000	51,565000
2,995820	378,997036	19,254	0,029802	22,350000	51,565000
3,015779	398,908606	20,259	0,037727	22,350000	51,565000
3,035798	418,912188	21,262	0,045688	22,360000	51,585000
3,055742	439,340256	22,263	0,053818	22,360000	51,585000
3,075757	458,753730	23,266	0,061545	22,340000	51,555000
3,095815	478,856686	24,271	0,069546	22,340000	51,555000
3,115755	498,952281	25,274	0,077544	22,350000	51,565000
3,135763	520,475915	26,280	0,086110	22,350000	51,565000
3,155773	540,621810	27,284	0,094128	22,350000	51,580000
3,175798	560,982402	28,287	0,102232	22,350000	51,580000
3,195720	578,992374	29,287	0,109400	22,360000	51,585000
3,215763	600,350385	30,291	0,117900	22,360000	51,585000
3,235760	621,026274	31,293	0,126129	22,350000	51,580000
3,255777	640,947658	32,295	0,134058	22,350000	51,580000
3,275817	658,872978	33,298	0,141192	22,350000	51,580000
3,295776	679,442133	34,300	0,149379	22,350000	51,580000
3,315768	699,745063	35,302	0,157459	22,360000	51,600000
3,335735	720,812314	36,306	0,165844	22,360000	51,600000
3,355704	738,688560	37,310	0,172959	22,360000	51,600000
3,375746	760,744641	38,313	0,181737	22,360000	51,600000
3,395748	779,618306	39,316	0,189249	22,360000	51,570000
3,415736	800,370260	40,318	0,197508	22,360000	51,570000
3,435723	818,977701	41,319	0,204914	22,350000	51,555000
3,455713	838,847558	42,320	0,212822	22,350000	51,555000
3,475678	860,788317	43,325	0,221555	22,350000	51,555000
3,495736	880,301164	44,329	0,229321	22,350000	51,555000
3,515720	899,540427	45,332	0,236978	22,360000	51,570000
3,535706	918,563766	46,333	0,244549	22,360000	51,570000
3,555756	940,602672	47,337	0,253321	22,360000	51,570000
3,575722	958,029896	48,337	0,260257	22,360000	51,570000
3,595761	980,153453	49,340	0,269062	22,350000	51,605000
3,615696	999,749725	50,343	0,276861	22,350000	51,605000
3,635780	1019,803608	51,346	0,284843	22,350000	51,605000
3,655664	1038,087164	52,348	0,292120	22,350000	51,605000
3,675605	1058,090747	53,351	0,300081	22,340000	51,580000
3,695664	1077,894355	54,352	0,307963	22,340000	51,580000
3,715693	1097,208454	55,357	0,315650	22,340000	51,580000
3,735681	1119,189698	56,361	0,324398	22,340000	51,580000
3,755697	1139,010482	57,364	0,332287	22,350000	51,555000
3,775725	1157,135777	58,366	0,339501	22,350000	51,555000
3,795717	1177,821480	59,368	0,347734	22,350000	51,555000
3,815666	1197,475414	60,371	0,355556	22,350000	51,555000
3,835669	1218,934026	61,374	0,364097	22,360000	51,570000
3,855667	1237,076496	62,377	0,371317	22,360000	51,570000
3,875656	1258,110621	63,383	0,379689	22,350000	51,555000
3,895655	1278,820862	64,388	0,387932	22,350000	51,555000
3,915701	1298,666182	65,394	0,395830	22,350000	51,555000
3,935664	1317,049113	66,432	0,403146	22,350000	51,555000
3,955679	1336,770523	67,434	0,410996	22,350000	51,555000
3,975628	1358,461006	68,436	0,419628	22,350000	51,555000
3,995593	1378,772525	69,438	0,427712	22,350000	51,580000
4,015634	1396,664720	70,439	0,434833	22,350000	51,580000
4,035631	1416,252405	71,443	0,442629	22,350000	51,595000
4,055639	1438,517048	72,447	0,451491	22,350000	51,595000
4,075656	1455,820362	73,451	0,458377	22,350000	51,595000
4,095653	1476,014104	74,454	0,466415	22,350000	51,595000
4,115726	1497,197904	75,456	0,474846	22,350000	51,595000
4,115654	1497,754888	76,460	0,475067	22,360000	51,560000
4,115579	1497,439591	77,462	0,474942	22,360000	51,560000
4,115600	1496,990568	78,463	0,474763	22,350000	51,555000
4,115636	1497,231028	79,467	0,474859	22,350000	51,555000
4,115647	1496,325622	80,473	0,474499	22,350000	51,565000
4,115680	1496,175948	81,475	0,474439	22,350000	51,565000
4,115655	1495,918312	82,478	0,474336	22,350000	51,540000
4,115637	1496,134236	83,480	0,474422	22,350000	51,540000
4,115623	1495,926900	84,484	0,474340	22,360000	51,570000
4,115681	1495,603015	85,488	0,474211	22,360000	51,570000
4,095648	1476,861848	86,490	0,466752	22,360000	51,570000
4,075624	1454,340796	87,492	0,457789	22,360000	51,570000
4,055562	1435,857265	88,497	0,450432	22,350000	51,580000
4,035681	1415,928520	89,500	0,442500	22,350000	51,580000
4,015714	1392,958445	90,502	0,433358	22,350000	51,540000
3,995693	1374,923936	91,503	0,426181	22,350000	51,540000
3,975650	1354,446795	92,504	0,418031	22,350000	51,565000
3,955641	1332,564924	93,505	0,409322	22,350000	51,565000
3,935715	1312,453380	94,509	0,401317	22,350000	51,580000
3,915619	1293,870475	95,513	0,393921	22,350000	51,580000
3,895679	1271,980017	96,516	0,385209	22,350000	51,580000
3,875713	1253,165240	97,519	0,377721	22,350000	51,580000
3,855650	1232,613262	98,520	0,369541	22,350000	51,580000
3,835693	1212,875903	99,521	0,361686	22,350000	51,580000
3,815720	1193,046531	100,526	0,353793	22,350000	51,555000
3,795670	1170,940150	101,529	0,344995	22,350000	51,555000
3,775704	1152,041948	102,531	0,337474	22,350000	51,555000
3,755702	1130,534263	103,533	0,328914	22,350000	51,555000
3,735665	1111,112202	104,535	0,321184	22,350000	51,580000
3,715689	1089,862153	105,536	0,312726	22,350000	51,580000
3,695747	1072,001855	106,538	0,305618	22,350000	51,555000
3,675752	1049,663601	107,543	0,296727	22,350000	51,555000
3,655705	1029,493169	108,547	0,288699	22,350000	51,580000
3,635637	1009,373037	109,549	0,280691	22,350000	51,580000
3,615661	990,915270	110,550	0,273345	22,350000	51,580000
3,595727	968,767176	111,551	0,264530	22,350000	51,580000
3,575725	950,775607	112,552	0,257370	22,350000	51,580000
3,555684	929,050771	113,554	0,248723	22,350000	51,580000
3,535725	908,756429	114,557	0,240646	22,350000	51,595000
3,515758	890,556297	115,558	0,233402	22,350000	51,595000
3,495777	869,074376	116,562	0,224853	22,360000	51,600000
3,475769	848,371496	117,564	0,216613	22,360000	51,600000
3,455739	830,421639	118,569	0,209469	22,350000	51,555000
3,435712	808,987565	119,574	0,200938	22,350000	51,555000
3,415731	788,294500	120,577	0,192702	22,350000	51,565000
3,395710	770,726190	121,580	0,185710	22,350000	51,565000
3,375772	748,419834	122,581	0,176832	22,350000	51,565000
3,355763	729,695842	123,586	0,169380	22,350000	51,565000
3,335775	709,825985	124,587	0,161472	22,350000	51,580000
3,315785	687,994415	125,588	0,152783	22,350000	51,580000
3,295781	668,247242	126,591	0,144923	22,350000	51,595000
3,275833	648,210535	127,594	0,136949	22,350000	51,595000
3,255813	629,860729	128,598	0,129646	22,350000	51,620000
3,235837	608,194783	129,602	0,121022	22,350000	51,620000
3,215856	587,999814	130,606	0,112985	22,350000	51,595000
3,195743	567,780308	131,607	0,104938	22,350000	51,595000
3,175779	549,987486	132,607	0,097856	22,350000	51,580000
3,155801	530,457463	133,612	0,090083	22,350000	51,580000
3,135784	509,116628	134,612	0,081589	22,350000	51,580000
3,115805	489,635678	135,616	0,073836	22,350000	51,580000
3,095765	469,898320	136,619	0,065980	22,360000	51,585000
3,075836	448,855606	137,622	0,057605	22,360000	51,585000
3,055806	428,061941	138,624	0,049330	22,350000	51,595000
3,035829	410,086320	139,626	0,042175	22,350000	51,595000
3,015788	389,152795	140,629	0,033844	22,350000	51,595000
2,995829	370,079156	141,633	0,026252	22,350000	51,595000
2,975803	350,374921	142,637	0,018410	22,360000	51,570000
2,955838	330,279326	143,638	0,010412	22,360000	51,570000
2,935826	310,641341	144,640	0,002596	22,360000	51,570000
2,915852	290,414475	145,643	-0,005454	22,360000	51,570000
2,895820	269,512847	146,647	-0,013773	22,350000	51,595000
2,875801	250,315297	147,650	-0,021414	22,350000	51,595000
2,855882	230,576712	148,650	-0,029270	22,350000	51,580000
2,835822	211,263839	149,653	-0,036956	22,350000	51,580000
2,815844	189,489930	150,657	-0,045622	22,340000	51,580000
2,795835	170,416290	151,662	-0,053213	22,340000	51,580000
2,775855	150,795481	152,665	-0,061022	22,340000	51,580000
2,755855	131,140321	153,666	-0,068845	22,340000	51,580000
2,735797	112,026195	154,670	-0,076453	22,360000	51,585000
2,715840	89,844977	155,676	-0,085281	22,360000	51,585000
2,695821	70,647427	156,678	-0,092921	22,350000	51,595000
2,675828	50,702732	157,680	-0,100859	22,350000	51,595000
2,655823	32,103879	158,681	-0,108262	22,350000	51,565000
2,635824	11,592386	159,683	-0,116425	22,350000	51,565000
2,615811	-8,286059	160,687	-0,124337	22,360000	51,545000

File: S_calib_3008-1
Quasi static measurement routine
Tip parameters (shape,radius, material...)
30.08.2022

Piezo position[nm]	MEMS displ.[nm]	Time[ms]	Cap [pf]	Temp [°C]	Rh [%]
eoh
1,372124	-0,058888	0,194	-0,123553	22,630000	51,505000
1,384133	12,116245	0,796	-0,118708	22,630000	51,505000
1,396130	22,703851	1,399	-0,114494	22,630000	51,505000
1,408155	36,292301	2,000	-0,109085	22,640000	51,520000
1,420142	46,115588	2,600	-0,105176	22,640000	51,520000
1,432118	60,209495	3,201	-0,099566	22,640000	51,520000
1,444118	70,871938	3,802	-0,095323	22,630000	51,520000
1,456098	81,718406	4,402	-0,091006	22,630000	51,520000
1,468095	94,948620	5,005	-0,085740	22,630000	51,520000
1,480081	105,952124	5,608	-0,081361	22,630000	51,520000
1,492128	117,836497	6,208	-0,076631	22,630000	51,520000
1,504078	132,238340	6,808	-0,070899	22,630000	51,520000
1,516075	141,703390	7,409	-0,067132	22,630000	51,520000
1,528087	153,688364	8,010	-0,062362	22,630000	51,545000
1,540117	165,663523	8,611	-0,057596	22,630000	51,545000
1,552116	177,805532	9,213	-0,052763	22,630000	51,545000
1,564106	191,533841	9,813	-0,047299	22,640000	51,505000
1,576099	201,647888	10,417	-0,043274	22,640000	51,505000
1,588124	214,073296	11,019	-0,038329	22,640000	51,505000
1,600108	225,790819	11,621	-0,033665	22,640000	51,505000
1,612106	237,724266	12,223	-0,028916	22,630000	51,545000
1,624115	249,683476	12,826	-0,024156	22,630000	51,545000
1,636042	261,742060	13,428	-0,019356	22,630000	51,545000
1,648086	273,659558	14,030	-0,014613	22,630000	51,520000
1,660122	287,056621	14,632	-0,009281	22,630000	51,520000
1,672144	299,621889	15,234	-0,004280	22,630000	51,520000
1,684066	310,035284	15,838	-0,000136	22,620000	51,530000
1,696081	322,069331	16,439	0,004654	22,620000	51,530000
1,708088	335,308132	17,040	0,009923	22,620000	51,530000
1,720067	345,770601	17,641	0,014087	22,620000	51,530000
1,732128	357,780111	18,242	0,018867	22,620000	51,545000
1,744157	371,542772	18,843	0,024344	22,620000	51,545000
1,756103	383,551056	19,445	0,029124	22,620000	51,545000
1,768062	395,510266	20,048	0,033883	22,640000	51,530000
1,780113	407,311214	20,651	0,038580	22,640000	51,530000
1,792091	418,248469	21,256	0,042933	22,640000	51,530000
1,804063	429,567270	21,858	0,047438	22,640000	51,545000
1,816077	441,276205	22,459	0,052098	22,640000	51,545000
1,828097	455,097754	23,059	0,057599	22,640000	51,545000
1,840028	465,443673	23,660	0,061717	22,640000	51,545000
1,852073	479,322884	24,262	0,067241	22,640000	51,505000
1,864089	489,187883	24,863	0,071167	22,640000	51,505000
1,876079	503,083042	25,464	0,076697	22,640000	51,505000
1,888081	514,791977	26,066	0,081357	22,630000	51,520000
1,900123	525,222548	26,668	0,085509	22,630000	51,520000
1,912069	537,754691	27,270	0,090497	22,630000	51,520000
1,924083	549,672189	27,871	0,095240	22,630000	51,520000
1,936048	560,799603	28,472	0,099668	22,630000	51,520000
1,948094	574,943811	29,075	0,105298	22,630000	51,520000
1,960107	587,120171	29,678	0,110144	22,630000	51,520000
1,972098	596,983943	30,279	0,114070	22,640000	51,530000
1,984065	611,030004	30,880	0,119660	22,640000	51,530000
1,996045	620,951437	31,480	0,123609	22,640000	51,530000
2,008072	633,185459	32,082	0,128478	22,620000	51,530000
2,020061	645,078419	32,687	0,133211	22,620000	51,530000
2,032045	657,734473	33,289	0,138249	22,620000	51,530000
2,044040	669,303549	33,890	0,142853	22,620000	51,530000
2,056026	681,362133	34,491	0,147652	22,620000	51,530000
2,068095	692,788896	35,095	0,152200	22,620000	51,530000
2,080132	704,939492	35,695	0,157036	22,620000	51,530000
2,092062	719,250550	36,297	0,162732	22,630000	51,520000
2,104044	729,006360	36,900	0,166615	22,630000	51,520000
2,116140	742,427960	37,500	0,171957	22,630000	51,520000
2,128097	754,262033	38,102	0,176667	22,630000	51,530000
2,140042	765,016489	38,703	0,180947	22,630000	51,530000
2,152059	776,958523	39,307	0,185700	22,630000	51,530000
2,164121	788,876021	39,907	0,190443	22,630000	51,520000
2,176099	801,110042	40,508	0,195312	22,630000	51,520000
2,188078	813,135502	41,108	0,200098	22,630000	51,520000
2,200038	825,086124	41,708	0,204854	22,630000	51,520000
2,212084	836,554599	42,308	0,209419	22,630000	51,530000
2,224088	849,103918	42,910	0,214414	22,630000	51,530000
2,236074	862,649429	43,513	0,219805	22,630000	51,530000
2,248075	873,254211	44,114	0,224025	22,640000	51,505000
2,260073	885,969152	44,716	0,229086	22,640000	51,505000
2,272086	899,009206	45,317	0,234276	22,640000	51,505000
2,284083	909,097489	45,920	0,238291	22,640000	51,505000
2,296090	923,134962	46,521	0,243878	22,640000	51,505000
2,308089	932,584063	47,122	0,247639	22,640000	51,505000
2,320046	945,057318	47,723	0,252603	22,640000	51,505000
2,332054	956,925742	48,325	0,257327	22,630000	51,505000
2,344061	968,684978	48,927	0,262007	22,630000	51,505000
2,356114	982,945735	49,529	0,267683	22,630000	51,505000
2,368069	993,076957	50,129	0,271715	22,630000	51,505000
2,372061	998,985406	50,731	0,274066	22,630000	51,505000
2,372088	998,901981	51,333	0,274033	22,630000	51,505000
2,360033	987,417557	51,933	0,269462	22,640000	51,520000
2,348054	973,754269	52,535	0,264024	22,640000	51,520000
2,336058	963,274625	53,138	0,259854	22,640000	51,520000
2,324040	951,016067	53,740	0,254975	22,630000	51,520000
2,312065	938,758735	54,342	0,250096	22,630000	51,520000
2,300070	924,439090	54,943	0,244397	22,630000	51,520000
2,288057	912,230832	55,547	0,239538	22,630000	51,520000
2,276047	900,264261	56,149	0,234775	22,640000	51,505000
2,264053	889,036246	56,749	0,230307	22,640000	51,505000
2,252058	875,555757	57,350	0,224941	22,640000	51,505000
2,240107	863,987908	57,952	0,220337	22,640000	51,505000
2,228090	851,546551	58,552	0,215386	22,640000	51,505000
2,216056	839,214382	59,155	0,210478	22,640000	51,505000
2,204080	825,892156	59,757	0,205175	22,630000	51,505000
2,192077	815,952320	60,358	0,201219	22,630000	51,505000
2,180064	801,167704	60,959	0,195335	22,630000	51,505000
2,168076	789,258794	61,561	0,190595	22,630000	51,505000
2,156090	777,365833	62,163	0,185862	22,630000	51,490000
2,144048	764,825102	62,764	0,180871	22,630000	51,490000
2,132103	754,237496	63,366	0,176657	22,630000	51,490000
2,120104	740,509187	63,966	0,171193	22,640000	51,490000
2,108067	728,840737	64,567	0,166549	22,640000	51,490000
2,096061	717,039789	65,170	0,161852	22,640000	51,490000
2,084051	705,429000	65,771	0,157231	22,630000	51,505000
2,072090	693,262455	66,374	0,152389	22,630000	51,505000
2,060037	679,118247	66,977	0,146759	22,630000	51,505000
2,048095	668,829990	67,579	0,142665	22,630000	51,505000
2,036040	654,734856	68,179	0,137055	22,640000	51,520000
2,024102	642,368336	68,780	0,132133	22,640000	51,520000
2,012143	630,591924	69,381	0,127446	22,640000	51,520000
2,000088	618,400842	69,983	0,122594	22,640000	51,520000
1,988059	607,131115	70,587	0,118108	22,640000	51,520000
1,976116	595,554678	71,189	0,113501	22,640000	51,520000
1,964093	582,075416	71,791	0,108136	22,630000	51,490000
1,952094	571,296424	72,392	0,103846	22,630000	51,490000
1,940140	559,262376	72,994	0,099057	22,630000	51,490000
1,928125	547,095831	73,596	0,094214	22,630000	51,490000
1,916124	533,582218	74,197	0,088836	22,630000	51,490000
1,904104	521,465972	74,799	0,084014	22,630000	51,490000
1,892115	511,052577	75,399	0,079869	22,630000	51,490000
1,880103	498,337635	75,999	0,074809	22,630000	51,520000
1,868080	485,314757	76,600	0,069625	22,630000	51,520000
1,856089	474,328429	77,201	0,065253	22,630000	51,520000
1,844046	462,118944	77,803	0,060394	22,640000	51,520000
1,832113	450,251747	78,403	0,055670	22,640000	51,520000
1,820089	438,276588	79,004	0,050904	22,640000	51,520000
1,808120	426,009442	79,607	0,046022	22,640000	51,520000
1,796108	413,660097	80,211	0,041107	22,620000	51,530000
1,784125	401,518088	80,812	0,036274	22,620000	51,530000
1,772087	388,977357	81,415	0,031283	22,620000	51,530000
1,760171	376,861112	82,017	0,026461	22,620000	51,530000
1,748127	365,051576	82,620	0,021761	22,620000	51,530000
1,736130	353,666526	83,222	0,017229	22,620000	51,530000
1,724142	341,308594	83,823	0,012311	22,630000	51,480000
1,712115	327,213460	84,425	0,006701	22,630000	51,480000
1,700083	315,064090	85,027	0,001866	22,630000	51,480000
1,688118	305,107078	85,628	-0,002097	22,630000	51,480000
1,676107	291,119906	86,230	-0,007664	22,640000	51,530000
1,664167	279,494396	86,830	-0,012291	22,640000	51,530000
1,652113	268,905563	87,431	-0,016505	22,640000	51,530000
1,640125	257,329126	88,034	-0,021113	22,640000	51,530000
1,628092	245,038670	88,637	-0,026004	22,640000	51,530000
1,616133	233,162885	89,239	-0,030731	22,640000	51,530000
1,604062	221,203675	89,841	-0,035491	22,630000	51,490000
1,592119	207,174790	90,441	-0,041074	22,630000	51,490000
1,580106	197,384628	91,043	-0,044971	22,630000	51,490000
1,568138	183,590069	91,645	-0,050461	22,630000	51,490000
1,556134	173,384010	92,247	-0,054523	22,630000	51,490000
1,544089	161,765861	92,847	-0,059147	22,630000	51,490000
1,532129	149,117168	93,449	-0,064181	22,630000	51,490000
1,520092	136,900322	94,049	-0,069043	22,630000	51,505000
1,508146	125,506684	94,650	-0,073578	22,630000	51,505000
1,496175	113,796522	95,250	-0,078239	22,630000	51,505000
1,484139	101,945273	95,853	-0,082956	22,630000	51,465000
1,472140	90,344300	96,456	-0,087573	22,630000	51,465000
1,460094	76,240578	97,058	-0,093186	22,630000	51,465000
1,448143	64,265419	97,658	-0,097952	22,630000	51,465000
1,436162	54,375883	98,259	-0,101888	22,630000	51,520000
1,424098	40,430424	98,861	-0,107438	22,630000	51,520000
1,412143	28,206217	99,462	-0,112304	22,630000	51,520000
1,400179	18,524017	100,063	-0,116157	22,640000	51,505000
1,388144	4,188423	100,664	-0,121863	22,640000	51,505000
1,376135	-6,391822	101,267	-0,126074	22,640000	51,505000
1,372111	-12,284322	101,467	-0,128419	22,640000	51,505000