Folder: Nanoindentation_Analysis/Nanoindentation Datenauswertung/data/S_calib (part 5)

File: S_calib_2208-1
Quasi static measurement routine
Tip parameters (shape,radius, material...)
22.08.2022

Piezo position[nm]	MEMS displ.[nm]	Time[ms]	Cap [pf]	Temp [°C]	Rh [%]
eoh
2,590066	0,316565	0,193	-0,132695	22,380000	52,345000
2,613326	19,394578	0,581	-0,124721	22,380000	52,345000
2,636639	41,772578	0,986	-0,115367	22,380000	52,345000
2,659964	66,547595	1,339	-0,105011	22,380000	52,345000
2,683299	89,804033	1,692	-0,095290	22,380000	52,345000
2,706679	108,882046	2,061	-0,087315	22,380000	52,345000
2,730007	131,924716	2,413	-0,077683	22,380000	52,345000
2,753290	154,350609	2,767	-0,068309	22,380000	52,345000
2,776677	178,691079	3,125	-0,058135	22,380000	52,345000
2,800039	198,448948	3,475	-0,049876	22,380000	52,345000
2,823282	223,137522	3,828	-0,039556	22,380000	52,345000
2,846642	243,355637	4,178	-0,031105	22,380000	52,345000
2,869988	268,874757	4,534	-0,020438	22,380000	52,345000
2,893291	291,149961	4,884	-0,011127	22,380000	52,345000
2,916574	310,426557	5,234	-0,003069	22,380000	52,345000
2,940025	335,969040	5,592	0,007607	22,380000	52,345000
2,963273	355,466414	5,946	0,015757	22,370000	52,345000
2,986629	377,171567	6,298	0,024830	22,370000	52,345000
3,009934	400,649951	6,649	0,034644	22,370000	52,345000
3,033313	422,283848	7,032	0,043687	22,370000	52,345000
3,056600	445,066023	7,385	0,053210	22,370000	52,345000
3,079897	466,826078	7,736	0,062306	22,370000	52,345000
3,103246	489,497281	8,088	0,071782	22,380000	52,360000
3,126571	513,188266	8,441	0,081685	22,380000	52,360000
3,149952	533,975264	8,793	0,090374	22,380000	52,360000
3,173273	558,332087	9,144	0,100555	22,380000	52,360000
3,196643	578,565388	9,497	0,109013	22,380000	52,360000
3,219894	601,101086	9,848	0,118433	22,380000	52,360000
3,243250	626,200845	10,199	0,128924	22,380000	52,320000
3,266576	645,493795	10,552	0,136989	22,380000	52,320000
3,289922	669,809734	10,904	0,147153	22,380000	52,320000
3,313221	690,264980	11,255	0,155703	22,380000	52,320000
3,336578	713,607861	11,605	0,165460	22,380000	52,320000
3,359867	734,949723	11,957	0,174381	22,370000	52,335000
3,383297	757,105777	12,309	0,183643	22,370000	52,335000
3,406505	779,380981	12,662	0,192954	22,370000	52,335000
3,429873	805,082330	13,015	0,203697	22,370000	52,335000
3,453236	825,292268	13,383	0,212145	22,370000	52,335000
3,476553	845,960115	13,735	0,220784	22,370000	52,335000
3,499865	869,493402	14,085	0,230621	22,370000	52,335000
3,523227	894,016102	14,436	0,240871	22,370000	52,335000
3,546522	913,078929	14,795	0,248839	22,370000	52,335000
3,569838	935,669529	15,146	0,258282	22,370000	52,335000
3,593205	960,184052	15,498	0,268529	22,370000	52,335000
3,616516	980,204751	15,849	0,276898	22,370000	52,335000
3,639810	1003,808126	16,201	0,286764	22,370000	52,320000
3,663231	1027,026017	16,552	0,296469	22,370000	52,320000
3,686501	1047,362113	16,904	0,304970	22,370000	52,320000
3,709801	1072,239926	17,256	0,315369	22,370000	52,320000
3,733160	1091,428912	17,606	0,323390	22,370000	52,320000
3,756511	1113,538240	17,959	0,332631	22,370000	52,320000
3,779899	1138,851768	18,316	0,343212	22,370000	52,320000
3,803145	1158,357319	18,668	0,351366	22,370000	52,320000
3,826487	1180,544913	19,019	0,360640	22,370000	52,320000
3,849798	1205,929697	19,371	0,371251	22,370000	52,320000
3,873113	1225,411885	19,740	0,379395	22,370000	52,320000
3,896490	1250,471927	20,092	0,389870	22,380000	52,360000
3,919861	1269,700630	20,445	0,397907	22,380000	52,360000
3,943102	1293,170838	20,801	0,407718	22,380000	52,360000
3,966476	1314,536063	21,154	0,416648	22,380000	52,360000
3,989793	1336,818275	21,505	0,425962	22,380000	52,360000
4,013136	1360,755738	21,857	0,435968	22,380000	52,360000
4,036487	1381,226170	22,208	0,444525	22,370000	52,345000
4,059817	1404,300379	22,560	0,454170	22,370000	52,345000
4,083160	1426,646839	22,915	0,463511	22,370000	52,345000
4,106448	1447,916277	23,271	0,472401	22,370000	52,345000
4,129809	1473,348955	23,624	0,483032	22,370000	52,345000
4,153190	1492,720170	23,975	0,491129	22,370000	52,320000
4,176434	1514,662455	24,327	0,500301	22,370000	52,320000
4,199787	1537,610506	24,679	0,509894	22,370000	52,320000
4,223156	1559,046987	25,034	0,518854	22,370000	52,320000
4,246460	1584,819593	25,387	0,529627	22,370000	52,320000
4,269693	1603,755093	25,739	0,537542	22,370000	52,320000
4,293020	1627,588592	26,093	0,547504	22,380000	52,335000
4,316426	1648,272793	26,447	0,556150	22,380000	52,335000
4,339745	1671,007074	26,798	0,565653	22,380000	52,335000
4,363056	1695,268111	27,149	0,575794	22,380000	52,335000
4,386400	1714,521344	27,501	0,583842	22,380000	52,335000
4,409723	1737,151662	27,881	0,593302	22,380000	52,335000
4,433038	1759,403503	28,233	0,602603	22,380000	52,320000
4,456386	1783,268541	28,591	0,612579	22,380000	52,320000
4,479716	1805,797230	28,943	0,621996	22,380000	52,320000
4,503021	1826,386812	29,295	0,630602	22,380000	52,320000
4,526426	1848,012532	29,648	0,639642	22,380000	52,320000
4,549692	1873,428856	30,003	0,650266	22,390000	52,360000
4,572984	1892,800071	30,353	0,658363	22,390000	52,360000
4,589713	1911,498439	30,704	0,666179	22,390000	52,360000
4,589702	1911,316210	31,056	0,666103	22,390000	52,360000
4,589738	1910,825592	31,407	0,665897	22,390000	52,360000
4,579640	1904,028203	31,759	0,663056	22,390000	52,360000
4,556340	1877,900484	32,115	0,652135	22,380000	52,345000
4,533054	1855,474591	32,466	0,642761	22,380000	52,345000
4,509687	1835,684014	32,816	0,634488	22,380000	52,345000
4,486352	1811,240748	33,169	0,624271	22,380000	52,345000
4,463015	1788,705050	33,522	0,614851	22,380000	52,345000
4,439762	1766,207900	33,876	0,605447	22,380000	52,345000
4,416380	1743,030895	34,228	0,595759	22,380000	52,345000
4,393081	1722,338517	34,581	0,587110	22,380000	52,345000
4,369688	1696,842759	34,941	0,576453	22,380000	52,345000
4,346397	1677,638588	35,294	0,568425	22,380000	52,345000
4,323115	1653,843638	35,648	0,558479	22,380000	52,345000
4,299725	1630,232085	35,998	0,548609	22,370000	52,335000
4,276414	1609,990608	36,351	0,540148	22,370000	52,335000
4,253089	1584,811416	36,703	0,529624	22,370000	52,335000
4,229733	1564,815247	37,055	0,521265	22,370000	52,335000
4,206409	1542,223479	37,407	0,511822	22,370000	52,335000
4,183060	1519,830293	37,759	0,502461	22,370000	52,335000
4,159772	1494,271456	38,112	0,491778	22,370000	52,335000
4,136455	1475,397867	38,464	0,483889	22,370000	52,335000
4,113067	1449,127635	38,816	0,472908	22,370000	52,335000
4,089804	1430,429267	39,168	0,465092	22,370000	52,335000
4,066417	1408,043090	39,519	0,455734	22,370000	52,335000
4,043095	1385,411605	39,872	0,446274	22,370000	52,335000
4,019787	1360,145970	40,224	0,435713	22,380000	52,360000
3,996447	1338,954798	40,584	0,426855	22,380000	52,360000
3,973146	1315,437864	40,949	0,417025	22,380000	52,360000
3,949829	1296,192808	41,302	0,408981	22,380000	52,360000
3,926490	1270,499636	41,654	0,398241	22,380000	52,360000
3,903114	1251,065341	42,011	0,390118	22,380000	52,335000
3,879787	1227,595133	42,363	0,380307	22,380000	52,335000
3,856534	1206,555818	42,716	0,371513	22,380000	52,335000
3,833106	1180,869655	43,070	0,360776	22,380000	52,335000
3,809823	1160,667894	43,423	0,352332	22,380000	52,335000
3,786505	1139,785110	43,774	0,343603	22,380000	52,335000
3,763155	1117,367393	44,125	0,334232	22,370000	52,320000
3,739884	1092,212732	44,497	0,323717	22,370000	52,320000
3,716488	1072,541305	44,852	0,315495	22,370000	52,320000
3,693175	1048,912231	45,203	0,305618	22,370000	52,320000
3,669846	1027,911465	45,554	0,296839	22,370000	52,320000
3,646574	1005,470385	45,907	0,287459	22,370000	52,320000
3,623197	983,788595	46,260	0,278396	22,370000	52,335000
3,599863	957,636345	46,610	0,267464	22,370000	52,335000
3,576532	936,904250	46,963	0,258798	22,370000	52,335000
3,553190	916,544791	47,314	0,250288	22,370000	52,335000
3,529881	893,810509	47,665	0,240785	22,370000	52,335000
3,506544	869,185014	48,015	0,230492	22,370000	52,335000
3,483213	849,536951	48,366	0,222279	22,370000	52,335000
3,459870	827,602843	48,718	0,213110	22,370000	52,335000
3,436563	802,193528	49,068	0,202489	22,370000	52,335000
3,413243	779,942855	49,465	0,193188	22,370000	52,335000
3,389868	758,451471	49,817	0,184205	22,370000	52,335000
3,366576	738,889849	50,168	0,176028	22,380000	52,305000
3,343273	715,752561	50,520	0,166357	22,380000	52,305000
3,319892	693,722666	50,873	0,157148	22,380000	52,305000
3,296585	671,606328	51,225	0,147904	22,380000	52,305000
3,273304	649,314771	51,578	0,138586	22,380000	52,305000
3,249963	627,198434	51,929	0,129341	22,380000	52,305000
3,226656	601,647774	52,279	0,118661	22,370000	52,320000
3,203272	579,483543	52,633	0,109396	22,370000	52,320000
3,179972	556,384803	52,985	0,099741	22,370000	52,320000
3,156590	534,711190	53,336	0,090682	22,370000	52,320000
3,133297	515,016401	53,689	0,082449	22,370000	52,320000
3,110004	490,153774	54,053	0,072057	22,380000	52,345000
3,086573	469,706704	54,405	0,063510	22,380000	52,345000
3,063254	446,141877	54,758	0,053660	22,380000	52,345000
3,039942	422,346927	55,111	0,043713	22,380000	52,345000
3,016651	399,716610	55,470	0,034254	22,380000	52,345000
2,993306	375,518653	55,822	0,024139	22,380000	52,345000
2,969890	353,788969	56,172	0,015056	22,380000	52,305000
2,946711	329,947294	56,524	0,005090	22,380000	52,305000
2,923325	310,750131	56,876	-0,002934	22,380000	52,305000
2,900008	285,753168	57,229	-0,013383	22,380000	52,305000
2,876656	261,856590	57,583	-0,023372	22,380000	52,305000
2,853312	242,919922	57,940	-0,031287	22,380000	52,305000
2,829989	220,091021	58,303	-0,040830	22,380000	52,305000
2,806661	197,064705	58,655	-0,050455	22,380000	52,305000
2,783288	171,759354	59,005	-0,061032	22,380000	52,305000
2,760057	152,506121	59,371	-0,069080	22,380000	52,305000
2,736685	126,449658	59,725	-0,079972	22,380000	52,305000
2,713347	107,212778	60,078	-0,088013	22,380000	52,345000
2,690022	84,304445	60,431	-0,097588	22,380000	52,345000
2,666707	59,173146	60,785	-0,108093	22,380000	52,345000
2,643352	39,168800	61,138	-0,116455	22,380000	52,345000
2,619999	15,612150	61,490	-0,126302	22,380000	52,345000
2,596624	-9,116141	61,841	-0,136638	22,380000	52,345000
2,590035	-11,718750	61,942	-0,137726	22,370000	52,360000

File: S_calib_2208-2
Quasi static measurement routine
Tip parameters (shape,radius, material...)
22.08.2022

Piezo position[nm]	MEMS displ.[nm]	Time[ms]	Cap [pf]	Temp [°C]	Rh [%]
eoh
2,589985	-0,427538	0,214	-0,135900	22,370000	52,345000
2,601663	11,347282	0,576	-0,130979	22,370000	52,345000
2,613323	22,781007	0,963	-0,126199	22,380000	52,320000
2,625023	33,083975	1,316	-0,121893	22,380000	52,320000
2,636646	44,928884	1,669	-0,116941	22,380000	52,320000
2,648414	54,726049	2,021	-0,112846	22,380000	52,320000
2,659983	66,991487	2,371	-0,107719	22,380000	52,320000
2,671663	78,607441	2,725	-0,102864	22,380000	52,320000
2,683334	88,284287	3,080	-0,098819	22,380000	52,320000
2,694970	100,834751	3,432	-0,093573	22,380000	52,320000
2,706642	110,416978	3,782	-0,089567	22,380000	52,320000
2,718257	123,347086	4,133	-0,084163	22,380000	52,320000
2,729984	134,860244	4,486	-0,079350	22,380000	52,320000
2,741584	144,229871	4,839	-0,075434	22,380000	52,320000
2,753319	156,818883	5,189	-0,070171	22,380000	52,305000
2,765037	166,401110	5,540	-0,066166	22,380000	52,305000
2,776636	178,073135	5,893	-0,061287	22,380000	52,305000
2,788283	190,116627	6,244	-0,056253	22,380000	52,305000
2,800010	199,983880	6,595	-0,052128	22,380000	52,305000
2,811690	212,613777	6,948	-0,046849	22,380000	52,320000
2,823306	221,745103	7,302	-0,043032	22,380000	52,320000
2,835013	233,662436	7,655	-0,038051	22,380000	52,320000
2,846624	244,550641	8,005	-0,033500	22,380000	52,320000
2,858285	255,652615	8,358	-0,028859	22,380000	52,320000
2,869975	266,413492	8,710	-0,024361	22,380000	52,320000
2,881650	277,429024	9,062	-0,019756	22,380000	52,345000
2,893300	288,522821	9,412	-0,015119	22,380000	52,345000
2,905000	301,317425	9,764	-0,009771	22,380000	52,345000
2,916640	310,924183	10,117	-0,005755	22,380000	52,345000
2,928288	323,307603	10,469	-0,000579	22,380000	52,345000
2,939949	332,771849	10,822	0,003377	22,380000	52,345000
2,951593	344,309538	11,174	0,008200	22,380000	52,345000
2,963298	355,957031	11,527	0,013068	22,380000	52,345000
2,975017	367,952630	11,879	0,018083	22,380000	52,345000
2,986637	378,263775	12,232	0,022393	22,380000	52,345000
2,998301	390,093498	12,584	0,027337	22,380000	52,345000
3,009914	399,581106	12,938	0,031303	22,370000	52,345000
3,021574	411,751925	13,288	0,036391	22,370000	52,345000
3,033262	421,523391	13,641	0,040475	22,370000	52,345000
3,044953	434,478030	13,992	0,045890	22,370000	52,345000
3,056606	445,270447	14,346	0,050401	22,370000	52,345000
3,068242	455,106160	14,696	0,054513	22,370000	52,345000
3,080042	466,952237	15,049	0,059464	22,380000	52,345000
3,091578	477,326462	15,399	0,063801	22,380000	52,345000
3,103252	488,697107	15,750	0,068554	22,380000	52,345000
3,114945	500,535007	16,102	0,073502	22,380000	52,345000
3,126644	512,475703	16,454	0,078493	22,380000	52,345000
3,138309	521,837152	16,808	0,082406	22,380000	52,345000
3,149929	534,410979	17,162	0,087662	22,370000	52,345000
3,161601	544,096002	17,513	0,091710	22,370000	52,345000
3,173280	556,606749	17,865	0,096940	22,370000	52,345000
3,184925	567,937678	18,218	0,101676	22,370000	52,345000
3,196606	578,050239	18,569	0,105903	22,370000	52,345000
3,208251	589,105487	18,921	0,110524	22,370000	52,335000
3,219895	600,096488	19,273	0,115119	22,370000	52,335000
3,231584	611,095666	19,625	0,119716	22,370000	52,335000
3,243192	623,716217	19,978	0,124992	22,370000	52,335000
3,254939	633,465489	20,331	0,129067	22,370000	52,335000
3,266581	644,899213	20,681	0,133846	22,370000	52,335000
3,278259	657,156474	21,032	0,138970	22,370000	52,295000
3,289888	666,874206	21,384	0,143032	22,370000	52,295000
3,301572	679,391961	21,739	0,148264	22,370000	52,295000
3,313225	689,418081	22,091	0,152455	22,370000	52,295000
3,324898	701,262990	22,442	0,157406	22,370000	52,295000
3,336544	711,035624	22,793	0,161491	22,370000	52,295000
3,348235	722,628215	23,146	0,166337	22,380000	52,305000
3,359930	734,853936	23,499	0,171447	22,380000	52,305000
3,371531	744,294819	23,852	0,175394	22,380000	52,305000
3,383192	755,357076	24,203	0,180018	22,380000	52,305000
3,394876	766,616748	24,555	0,184724	22,380000	52,305000
3,406582	779,412521	24,909	0,190073	22,380000	52,320000
3,418170	789,057827	25,262	0,194104	22,380000	52,320000
3,429848	800,325677	25,612	0,198814	22,380000	52,320000
3,441518	811,444004	25,963	0,203462	22,380000	52,320000
3,453259	824,017830	26,315	0,208718	22,380000	52,320000
3,464862	833,845367	26,667	0,212826	22,380000	52,320000
3,476535	844,867907	27,019	0,217433	22,380000	52,320000
3,488153	855,804005	27,376	0,222004	22,380000	52,320000
3,499880	868,535530	27,729	0,227326	22,380000	52,320000
3,511544	878,863029	28,080	0,231643	22,380000	52,320000
3,523183	889,196368	28,432	0,235962	22,380000	52,320000
3,534827	901,889345	28,784	0,241268	22,380000	52,320000
3,546514	912,397905	29,138	0,245661	22,380000	52,345000
3,558160	922,700873	29,491	0,249967	22,380000	52,345000
3,569824	933,794670	29,841	0,254604	22,380000	52,345000
3,581473	946,811220	30,193	0,260045	22,380000	52,345000
3,589817	954,145952	30,545	0,263111	22,380000	52,345000
3,589795	953,980076	30,898	0,263042	22,380000	52,345000
3,589809	953,806024	31,257	0,262969	22,370000	52,320000
3,584821	948,788876	31,609	0,260872	22,370000	52,320000
3,573139	938,661128	31,959	0,256639	22,370000	52,320000
3,561489	927,622234	32,310	0,252024	22,370000	52,320000
3,549867	914,337012	32,662	0,246471	22,370000	52,320000
3,538186	905,109898	33,017	0,242614	22,380000	52,335000
3,526510	892,425099	33,369	0,237312	22,380000	52,335000
3,514805	882,130308	33,720	0,233009	22,380000	52,335000
3,503176	870,751486	34,071	0,228252	22,380000	52,335000
3,491536	859,404203	34,422	0,223509	22,380000	52,335000
3,479876	847,708816	34,776	0,218621	22,380000	52,335000
3,468203	836,717815	35,136	0,214026	22,370000	52,335000
3,456512	825,093685	35,490	0,209167	22,370000	52,335000
3,444876	813,857375	35,842	0,204471	22,370000	52,335000
3,433202	802,732039	36,195	0,199820	22,370000	52,335000
3,421504	791,368402	36,549	0,195070	22,370000	52,335000
3,409890	780,575985	36,903	0,190559	22,370000	52,335000
3,398177	769,061659	37,257	0,185746	22,370000	52,335000
3,386511	757,223759	37,610	0,180798	22,370000	52,335000
3,374900	745,488655	37,963	0,175893	22,370000	52,335000
3,363204	735,962498	38,315	0,171911	22,370000	52,335000
3,351533	722,802267	38,665	0,166410	22,370000	52,335000
3,339867	712,895298	39,015	0,162269	22,380000	52,345000
3,328237	700,385719	39,365	0,157040	22,380000	52,345000
3,316545	690,881757	39,719	0,153067	22,380000	52,345000
3,304944	678,695752	40,070	0,147973	22,380000	52,345000
3,293241	668,392784	40,422	0,143667	22,380000	52,345000
3,281553	657,425146	40,780	0,139082	22,380000	52,345000
3,269932	645,508981	41,132	0,134101	22,390000	52,345000
3,258262	633,457312	41,482	0,129063	22,390000	52,345000
3,246537	623,644961	41,840	0,124962	22,390000	52,345000
3,234924	612,029007	42,193	0,120106	22,390000	52,345000
3,223295	601,220236	42,545	0,115588	22,390000	52,345000
3,211544	588,456003	42,901	0,110253	22,390000	52,345000
3,199887	578,628467	43,252	0,106145	22,380000	52,345000
3,188271	567,534670	43,605	0,101508	22,380000	52,345000
3,176587	554,929304	43,957	0,096239	22,380000	52,345000
3,164935	543,787614	44,312	0,091582	22,380000	52,345000
3,153265	532,922772	44,663	0,087040	22,380000	52,345000
3,141581	522,944546	45,014	0,082869	22,380000	52,345000
3,129895	511,494468	45,366	0,078083	22,380000	52,345000
3,118321	501,033801	45,717	0,073710	22,380000	52,345000
3,106553	489,646802	46,068	0,068951	22,380000	52,345000
3,094920	478,553005	46,421	0,064313	22,380000	52,345000
3,083259	465,820313	46,771	0,058991	22,380000	52,345000
3,071649	456,269625	47,122	0,054999	22,380000	52,335000
3,059928	443,221535	47,472	0,049545	22,380000	52,335000
3,048309	433,749112	47,830	0,045585	22,380000	52,335000
3,036577	422,101619	48,187	0,040717	22,380000	52,335000
3,024914	411,410829	48,540	0,036248	22,380000	52,335000
3,013198	398,616225	48,892	0,030900	22,380000	52,335000
3,001595	388,986104	49,255	0,026875	22,380000	52,335000
2,989896	377,860767	49,608	0,022224	22,380000	52,335000
2,978300	366,299716	49,961	0,017392	22,380000	52,335000
2,966627	354,485179	50,312	0,012453	22,380000	52,335000
2,954915	343,905362	50,663	0,008031	22,380000	52,335000
2,943313	333,950499	51,018	0,003870	22,370000	52,345000
2,931537	321,029736	51,374	-0,001531	22,370000	52,345000
2,919924	311,620393	51,729	-0,005464	22,370000	52,345000
2,908267	299,323415	52,080	-0,010604	22,370000	52,345000
2,896625	287,707461	52,431	-0,015460	22,370000	52,345000
2,884953	277,856562	52,782	-0,019578	22,370000	52,345000
2,873264	267,205489	53,140	-0,024030	22,380000	52,335000
2,861644	254,346638	53,491	-0,029405	22,380000	52,335000
2,849981	244,756233	53,843	-0,033414	22,380000	52,335000
2,838339	234,002364	54,197	-0,037909	22,380000	52,335000
2,826594	221,405175	54,550	-0,043174	22,380000	52,335000
2,814964	211,893036	54,903	-0,047150	22,380000	52,335000
2,803286	199,406820	55,253	-0,052370	22,380000	52,305000
2,791617	189,579284	55,605	-0,056478	22,380000	52,305000
2,779927	177,219227	55,957	-0,061644	22,380000	52,305000
2,768252	167,279549	56,319	-0,065799	22,380000	52,305000
2,756674	156,376159	56,672	-0,070356	22,380000	52,305000
2,744956	144,767214	57,022	-0,075209	22,390000	52,335000
2,733304	134,377804	57,372	-0,079552	22,390000	52,335000
2,721611	123,315547	57,726	-0,084176	22,390000	52,335000
2,709931	110,915773	58,079	-0,089359	22,390000	52,335000
2,698295	101,071882	58,430	-0,093474	22,390000	52,335000
2,686695	89,756140	58,782	-0,098204	22,390000	52,335000
2,675027	77,293286	59,135	-0,103413	22,380000	52,320000
2,663316	66,159773	59,487	-0,108067	22,380000	52,320000
2,651602	56,023849	59,839	-0,112304	22,380000	52,320000
2,639983	44,739646	60,200	-0,117021	22,380000	52,320000
2,628327	34,113104	60,552	-0,121462	22,380000	52,320000
2,616627	22,883803	60,905	-0,126156	22,380000	52,320000
2,604984	10,041305	61,269	-0,131524	22,380000	52,320000
2,593375	-0,047894	61,619	-0,135742	22,380000	52,320000
2,589965	-3,117758	61,719	-0,137025	22,380000	52,320000