Folder: Nanoindentation_Analysis/Nanoindentation Datenauswertung/data/S_calib (part 2)

File: S_calib_0509-3
Quasi static measurement routine
Tip parameters (shape,radius, material...)
05.09.2022

Piezo position[nm]	MEMS displ.[nm]	Time[ms]	Cap [pf]	Temp [°C]	Rh [%]
eoh
1,935986	-0,024472	0,196	-0,069632	94,160000	0,000000
1,948006	10,040647	0,797	-0,065415	94,160000	0,000000
1,959986	22,293127	1,398	-0,060281	94,160000	0,000000
1,971966	34,511812	2,001	-0,055162	94,160000	0,000000
1,983986	48,374804	2,601	-0,049353	94,160000	0,000000
1,995921	58,344365	3,203	-0,045176	94,160000	0,000000
2,007961	72,435766	3,804	-0,039271	94,160000	0,000000
2,019971	84,371271	4,407	-0,034271	94,160000	0,000000
2,031981	96,607436	5,010	-0,029144	94,110000	0,000000
2,043987	107,319324	5,613	-0,024655	94,110000	0,000000
2,056003	118,742076	6,216	-0,019869	94,110000	0,000000
2,067919	132,210015	6,818	-0,014226	94,170000	0,000000
2,079986	142,875289	7,420	-0,009757	94,170000	0,000000
2,091963	157,289491	8,022	-0,003718	94,170000	0,000000
2,103906	168,798479	8,624	0,001104	94,080000	0,000000
2,115898	181,105730	9,224	0,006261	94,080000	0,000000
2,127918	193,223029	9,825	0,011338	94,080000	0,000000
2,140015	204,108555	10,429	0,015899	94,080000	0,000000
2,151993	215,413606	11,030	0,020636	94,160000	0,000000
2,163962	229,315054	11,633	0,026461	94,160000	0,000000
2,175995	238,835956	12,234	0,030450	94,160000	0,000000
2,187967	252,587075	12,835	0,036212	94,130000	0,000000
2,199934	263,497073	13,436	0,040783	94,130000	0,000000
2,211980	275,669143	14,037	0,045883	94,130000	0,000000
2,223962	289,585742	14,639	0,051714	94,130000	0,000000
2,235981	300,945564	15,240	0,056474	94,130000	0,000000
2,247981	313,781884	15,842	0,061853	94,130000	0,000000
2,259977	324,169805	16,443	0,066205	94,130000	0,000000
2,271921	336,422285	17,044	0,071339	94,130000	0,000000
2,284038	348,215618	17,645	0,076280	94,130000	0,000000
2,295992	360,238524	18,245	0,081318	94,130000	0,000000
2,307918	373,824163	18,848	0,087010	94,130000	0,000000
2,319940	383,928904	19,449	0,091244	94,130000	0,000000
2,331990	397,775582	20,051	0,097046	94,130000	0,000000
2,343917	410,066518	20,653	0,102196	94,130000	0,000000
2,355964	421,615127	21,256	0,107035	94,110000	0,000000
2,367935	432,974950	21,857	0,111794	94,110000	0,000000
2,379982	444,500252	22,460	0,116624	94,110000	0,000000
2,391982	456,072168	23,062	0,121472	94,180000	0,000000
2,403948	470,006246	23,662	0,127311	94,180000	0,000000
2,415941	480,000280	24,263	0,131498	94,180000	0,000000
2,427989	492,061642	24,865	0,136552	94,180000	0,000000
2,439929	506,295216	25,467	0,142516	94,180000	0,000000
2,451974	518,025619	26,069	0,147431	94,180000	0,000000
2,463968	529,542764	26,672	0,152256	94,170000	0,000000
2,475948	540,397990	27,274	0,156805	94,170000	0,000000
2,487983	553,651505	27,874	0,162358	94,170000	0,000000
2,499949	564,253850	28,476	0,166800	94,170000	0,000000
2,511915	576,007561	29,079	0,171725	94,160000	0,000000
2,523945	588,275190	29,679	0,176865	94,160000	0,000000
2,535928	600,092995	30,281	0,181817	94,160000	0,000000
2,548001	614,009593	30,883	0,187648	94,130000	0,000000
2,559937	623,545644	31,485	0,191644	94,130000	0,000000
2,571949	636,097619	32,089	0,196903	94,130000	0,000000
2,583994	648,049439	32,689	0,201911	94,130000	0,000000
2,595941	661,089695	33,290	0,207375	94,130000	0,000000
2,607937	672,860885	33,893	0,212307	94,130000	0,000000
2,619993	683,746411	34,495	0,216868	94,130000	0,000000
2,631986	697,900740	35,098	0,222798	94,110000	0,000000
2,643926	709,970260	35,700	0,227855	94,110000	0,000000
2,655937	719,703256	36,301	0,231934	94,110000	0,000000
2,667998	731,765783	36,903	0,236988	94,110000	0,000000
2,679974	744,980842	37,504	0,242525	94,110000	0,000000
2,691956	757,279935	38,105	0,247678	94,110000	0,000000
2,703949	769,129205	38,707	0,252643	94,110000	0,000000
2,715939	780,598570	39,309	0,257449	94,110000	0,000000
2,727964	791,880314	39,911	0,262176	94,110000	0,000000
2,739912	803,673646	40,511	0,267117	94,130000	0,000000
2,751968	815,663923	41,112	0,272141	94,130000	0,000000
2,763924	827,213697	41,715	0,276980	94,130000	0,000000
2,775924	841,573128	42,318	0,282997	94,130000	0,000000
2,787967	851,621933	42,920	0,287208	94,080000	0,000000
2,799982	865,057242	43,523	0,292837	94,080000	0,000000
2,811907	875,833225	44,124	0,297352	94,080000	0,000000
2,823910	887,437770	44,727	0,302214	94,110000	0,000000
2,835937	899,728707	45,329	0,307364	94,110000	0,000000
2,847948	912,824899	45,931	0,312852	94,110000	0,000000
2,859949	923,726740	46,533	0,317419	94,170000	0,000000
2,871952	935,481615	47,134	0,322345	94,170000	0,000000
2,883994	949,358592	47,736	0,328159	94,170000	0,000000
2,895901	959,649789	48,339	0,332471	94,170000	0,000000
2,907912	972,582833	48,940	0,337890	94,130000	0,000000
2,919975	984,471724	49,541	0,342872	94,130000	0,000000
2,931981	995,405029	50,142	0,347453	94,130000	0,000000
2,935932	1001,736370	50,742	0,350105	94,080000	0,000000
2,935907	1001,048814	51,343	0,349817	94,080000	0,000000
2,923905	989,271797	51,944	0,344883	94,080000	0,000000
2,911927	979,056347	52,545	0,340603	94,080000	0,000000
2,899924	966,757253	53,149	0,335449	94,080000	0,000000
2,887905	954,742504	53,751	0,330415	94,080000	0,000000
2,875960	941,062472	54,354	0,324683	94,080000	0,000000
2,863919	929,457926	54,957	0,319821	94,080000	0,000000
2,851909	917,964089	55,557	0,315005	94,080000	0,000000
2,839914	906,209213	56,158	0,310080	94,080000	0,000000
2,827966	894,486967	56,761	0,305168	94,160000	0,000000
2,815945	882,179715	57,365	0,300011	94,160000	0,000000
2,803935	868,294582	57,967	0,294193	94,160000	0,000000
2,791949	858,300548	58,568	0,290006	94,160000	0,000000
2,779926	846,285800	59,169	0,284972	94,160000	0,000000
2,767966	832,819026	59,769	0,279329	94,160000	0,000000
2,755971	821,948650	60,372	0,274774	94,160000	0,000000
2,743944	807,794321	60,975	0,268844	94,190000	0,000000
2,731921	797,982082	61,577	0,264732	94,190000	0,000000
2,719944	785,871774	62,180	0,259658	94,190000	0,000000
2,707948	771,765224	62,781	0,253748	94,120000	0,000000
2,695923	761,850434	63,382	0,249593	94,120000	0,000000
2,683919	749,693513	63,984	0,244500	94,120000	0,000000
2,671941	736,218582	64,586	0,238854	94,140000	0,000000
2,659982	724,361156	65,190	0,233885	94,140000	0,000000
2,647970	713,530402	65,794	0,229347	94,140000	0,000000
2,635959	701,263938	66,396	0,224208	94,140000	0,000000
2,623980	689,414668	66,996	0,219243	94,160000	0,000000
2,611997	677,249590	67,599	0,214146	94,160000	0,000000
2,599980	664,824638	68,199	0,208939	94,160000	0,000000
2,587991	650,986118	68,802	0,203141	94,130000	0,000000
2,575929	639,105385	69,402	0,198163	94,130000	0,000000
2,563970	628,977336	70,003	0,193919	94,130000	0,000000
2,551972	614,996644	70,604	0,188062	94,130000	0,000000
2,539912	604,165890	71,208	0,183523	94,160000	0,000000
2,527980	592,561344	71,810	0,178661	94,160000	0,000000
2,515925	578,730982	72,411	0,172866	94,160000	0,000000
2,503974	568,619248	73,013	0,168629	94,210000	0,000000
2,491960	554,575626	73,615	0,162745	94,210000	0,000000
2,479959	544,604900	74,219	0,158567	94,210000	0,000000
2,467991	532,290657	74,822	0,153408	94,110000	0,000000
2,455955	520,638332	75,423	0,148525	94,110000	0,000000
2,443946	507,912720	76,024	0,143193	94,110000	0,000000
2,431981	496,514441	76,627	0,138417	94,130000	0,000000
2,419957	484,602243	77,227	0,133426	94,130000	0,000000
2,407944	472,437164	77,827	0,128329	94,130000	0,000000
2,395990	458,630109	78,428	0,122544	94,130000	0,000000
2,383975	447,579104	79,030	0,117914	94,130000	0,000000
2,372021	434,671698	79,632	0,112505	94,130000	0,000000
2,360005	422,238589	80,234	0,107296	94,130000	0,000000
2,347886	412,331957	80,837	0,103145	94,180000	0,000000
2,335936	399,171670	81,439	0,097631	94,180000	0,000000
2,323963	387,922556	82,042	0,092917	94,180000	0,000000
2,311960	376,058137	82,644	0,087946	94,180000	0,000000
2,299959	362,630985	83,247	0,082320	94,080000	0,000000
2,287976	351,373713	83,849	0,077604	94,080000	0,000000
2,275922	340,045355	84,450	0,072857	94,160000	0,000000
2,263918	326,578582	85,052	0,067214	94,160000	0,000000
2,252005	315,589340	85,655	0,062610	94,160000	0,000000
2,239994	303,764544	86,258	0,057655	94,160000	0,000000
2,227922	291,954896	86,861	0,052707	94,160000	0,000000
2,215956	279,915675	87,462	0,047663	94,160000	0,000000
2,203997	268,051257	88,064	0,042691	94,160000	0,000000
2,191963	254,030942	88,666	0,036817	94,180000	0,000000
2,179983	242,940315	89,268	0,032170	94,180000	0,000000
2,167959	230,427963	89,870	0,026927	94,180000	0,000000
2,155966	219,502815	90,472	0,022350	94,180000	0,000000
2,144004	207,086021	91,072	0,017147	94,160000	0,000000
2,131977	195,765821	91,674	0,012404	94,160000	0,000000
2,119981	183,521498	92,275	0,007273	94,160000	0,000000
2,107949	171,988039	92,877	0,002441	94,110000	0,000000
2,095943	158,205456	93,480	-0,003334	94,110000	0,000000
2,084004	146,261793	94,081	-0,008338	94,110000	0,000000
2,071995	135,958942	94,684	-0,012655	94,110000	0,000000
2,059946	122,002722	95,287	-0,018503	94,110000	0,000000
2,047974	111,945760	95,889	-0,022717	94,110000	0,000000
2,036026	98,130547	96,490	-0,028505	94,110000	0,000000
2,023955	88,200608	97,092	-0,032666	94,110000	0,000000
2,012000	74,401710	97,694	-0,038448	94,110000	0,000000
1,999964	64,242197	98,295	-0,042705	94,110000	0,000000
1,988021	50,529535	98,899	-0,048450	94,110000	0,000000
1,975995	38,665116	99,499	-0,053421	94,110000	0,000000
1,963938	26,941705	100,101	-0,058333	94,110000	0,000000
1,952027	15,495646	100,704	-0,063129	94,160000	0,000000
1,939914	2,754885	101,305	-0,068468	94,160000	0,000000
1,936008	-0,198109	101,505	-0,069705	94,160000	0,000000

File: S_calib_0809-1
Quasi static measurement routine
Tip parameters (shape,radius, material...)
08.09.2022

Piezo position[nm]	MEMS displ.[nm]	Time[ms]	Cap [pf]	Temp [°C]	Rh [%]
eoh
2,339850	-0,481289	0,216	-0,063023	22,490000	54,590000
2,362917	23,169470	3,673	-0,053114	22,480000	54,590000
2,385927	46,038279	7,134	-0,043532	22,480000	54,605000
2,408912	68,505044	10,588	-0,034118	22,480000	54,565000
2,431886	92,834036	14,046	-0,023924	22,490000	54,575000
2,454874	115,016455	17,500	-0,014630	22,490000	54,575000
2,477903	139,070424	20,958	-0,004551	22,490000	54,575000
2,500869	161,386859	24,410	0,004799	22,480000	54,590000
2,523937	184,736957	27,865	0,014583	22,490000	54,605000
2,546916	208,111529	31,320	0,024377	22,490000	54,605000
2,569873	230,957031	34,779	0,033949	22,490000	54,615000
2,592925	254,615948	38,235	0,043862	22,480000	54,590000
2,615920	277,950897	41,690	0,053640	22,480000	54,605000
2,638881	301,206602	45,148	0,063384	22,480000	54,605000
2,661886	324,336450	48,606	0,073075	22,500000	54,620000
2,684915	348,350798	52,060	0,083137	22,480000	54,575000
2,707931	370,391045	55,517	0,092372	22,500000	54,580000
2,730939	394,073268	58,977	0,102295	22,490000	54,615000
2,753908	416,184601	62,435	0,111560	22,480000	54,605000
2,776864	440,080083	65,889	0,121572	22,480000	54,590000
2,799881	463,517583	69,347	0,131392	22,490000	54,565000
2,822927	486,860690	72,805	0,141173	22,480000	54,575000
2,845848	509,721342	76,260	0,150751	22,480000	54,550000
2,868905	532,100705	79,720	0,160128	22,490000	54,590000
2,891938	555,341261	83,181	0,169866	22,490000	54,590000
2,914856	579,213436	86,635	0,179869	22,490000	54,565000
2,937905	602,192954	90,088	0,189497	22,490000	54,615000
2,960900	624,469766	93,547	0,198831	22,490000	54,575000
2,983916	648,310477	97,004	0,208820	22,490000	54,575000
3,006833	670,626911	100,458	0,218171	22,480000	54,590000
3,029871	694,072569	103,914	0,227995	22,490000	54,575000
3,052839	717,951736	107,372	0,238000	22,500000	54,610000
3,075856	741,247063	110,832	0,247761	22,480000	54,605000
3,098872	763,445797	114,288	0,257062	22,480000	54,565000
3,121865	787,301658	117,751	0,267058	22,480000	54,605000
3,144900	809,649556	121,206	0,276421	22,480000	54,605000
3,167858	832,850490	124,664	0,286143	22,480000	54,605000
3,190803	856,375392	128,119	0,296000	22,480000	54,590000
3,213793	879,978371	131,574	0,305889	22,490000	54,590000
3,236882	903,424029	135,028	0,315713	22,490000	54,590000
3,259825	926,166981	138,485	0,325242	22,480000	54,605000
3,282907	948,728138	141,938	0,334695	22,490000	54,590000
3,305818	973,002359	145,394	0,344866	22,480000	54,605000
3,328830	994,387679	148,849	0,353827	22,490000	54,590000
3,351831	1018,883316	152,307	0,364090	22,480000	54,590000
3,374810	1041,388537	155,760	0,373520	22,490000	54,575000
3,397796	1064,566164	159,216	0,383231	22,480000	54,590000
3,420829	1087,529367	162,671	0,392853	22,490000	54,605000
3,443855	1111,385227	166,124	0,402849	22,500000	54,610000
3,466813	1134,776113	169,579	0,412649	22,490000	54,605000
3,489792	1157,155476	173,035	0,422026	22,490000	54,605000
3,512789	1180,333103	176,493	0,431738	22,480000	54,590000
3,535771	1204,512931	179,949	0,441869	22,490000	54,605000
3,558743	1226,552012	183,402	0,451104	22,490000	54,575000
3,581821	1250,093228	186,856	0,460967	22,490000	54,630000
3,604794	1273,246383	190,316	0,470668	22,490000	54,590000
3,627726	1296,288829	193,774	0,480323	22,480000	54,590000
3,650775	1320,452342	197,228	0,490448	22,480000	54,590000
3,673813	1343,377088	200,685	0,500053	22,480000	54,605000
3,696775	1366,467314	204,140	0,509728	22,490000	54,590000
3,719725	1389,337289	207,597	0,519311	22,480000	54,590000
3,742744	1413,247921	211,055	0,529329	22,490000	54,565000
3,765760	1435,233396	214,510	0,538541	22,490000	54,590000
3,788798	1458,085891	217,968	0,548116	22,490000	54,605000
3,811747	1482,487135	221,424	0,558340	22,490000	54,615000
3,834748	1504,598467	224,884	0,567605	22,490000	54,590000
3,857818	1527,870488	228,342	0,577356	22,480000	54,590000
3,880762	1550,928084	231,797	0,587017	22,490000	54,590000
3,903791	1574,184955	235,250	0,596762	22,480000	54,615000
3,926699	1598,159681	238,709	0,606807	22,490000	54,615000
3,949798	1620,262856	242,165	0,616068	22,480000	54,605000
3,972801	1643,882151	245,619	0,625965	22,480000	54,615000
3,995751	1666,939747	249,076	0,635626	22,480000	54,615000
4,018773	1689,778257	252,534	0,645195	22,490000	54,615000
4,041728	1713,870684	255,990	0,655290	22,480000	54,575000
4,064748	1736,621793	259,446	0,664823	22,480000	54,615000
4,087736	1759,135171	262,905	0,674256	22,480000	54,615000
4,110798	1782,068075	266,358	0,683865	22,490000	54,575000
4,133740	1806,436689	269,815	0,694075	22,500000	54,610000
4,156792	1829,361435	273,272	0,703681	22,490000	54,590000
4,179713	1852,079915	276,728	0,713200	22,490000	54,565000
4,202709	1875,786611	280,184	0,723133	22,480000	54,590000
4,225669	1899,073781	283,639	0,732890	22,480000	54,575000
4,248690	1922,084763	287,093	0,742532	22,490000	54,605000
4,271656	1945,389413	290,550	0,752296	22,480000	54,615000
4,294719	1967,468116	294,009	0,761547	22,480000	54,605000
4,317663	1991,664258	297,465	0,771686	22,490000	54,645000
4,339698	2013,640411	300,923	0,780894	22,490000	54,645000
4,322668	1996,487638	304,377	0,773707	22,480000	54,605000
4,299670	1973,830922	307,834	0,764213	22,500000	54,620000
4,276727	1950,748853	311,291	0,754542	22,500000	54,620000
4,253752	1927,642312	314,745	0,744860	22,480000	54,605000
4,230759	1902,942739	318,198	0,734511	22,480000	54,575000
4,207748	1879,756955	321,653	0,724796	22,480000	54,605000
4,184703	1856,453470	325,109	0,715032	22,480000	54,575000
4,161731	1833,592818	328,563	0,705454	22,490000	54,575000
4,138719	1811,251911	332,018	0,696093	22,480000	54,590000
4,115730	1787,583672	335,471	0,686176	22,490000	54,565000
4,092721	1764,132188	338,930	0,676350	22,480000	54,590000
4,069691	1741,065269	342,386	0,666685	22,480000	54,605000
4,046818	1717,771107	345,840	0,656924	22,500000	54,620000
4,023661	1694,206584	349,299	0,647051	22,490000	54,605000
4,000732	1670,777241	352,754	0,637234	22,490000	54,590000
3,977754	1646,857287	356,209	0,627211	22,480000	54,630000
3,954808	1624,745954	359,668	0,617947	22,490000	54,605000
3,931740	1600,993810	363,120	0,607995	22,490000	54,605000
3,908749	1577,816183	366,579	0,598283	22,480000	54,605000
3,885736	1554,165424	370,034	0,588374	22,480000	54,590000
3,862791	1531,328078	373,490	0,578805	22,490000	54,590000
3,839763	1507,652847	376,946	0,568885	22,480000	54,660000
3,816726	1483,332013	380,401	0,558694	22,490000	54,615000
3,793713	1460,304715	383,855	0,549046	22,490000	54,575000
3,770791	1437,237796	387,312	0,539381	22,490000	54,605000
3,747785	1414,226814	390,767	0,529739	22,490000	54,605000
3,724837	1391,128431	394,222	0,520061	22,490000	54,575000
3,701768	1368,038205	397,682	0,510386	22,490000	54,575000
3,678825	1344,521461	401,141	0,500533	22,480000	54,575000
3,655786	1321,526794	404,594	0,490898	22,480000	54,630000
3,632837	1297,867877	408,049	0,480985	22,490000	54,590000
3,609829	1274,966438	411,508	0,471389	22,480000	54,605000
3,586849	1251,340151	414,963	0,461490	22,480000	54,660000
3,563843	1228,534271	418,420	0,451934	22,500000	54,595000
3,540876	1204,614316	421,877	0,441912	22,490000	54,590000
3,517780	1181,381918	425,334	0,432177	22,490000	54,605000
3,494824	1158,726367	428,789	0,422685	22,490000	54,605000
3,471815	1134,222572	432,245	0,412417	22,480000	54,605000
3,448801	1111,022804	435,697	0,402697	22,480000	54,590000
3,425854	1088,334623	439,151	0,393190	22,480000	54,590000
3,402841	1065,363263	442,604	0,383565	22,490000	54,590000
3,379856	1042,011998	446,060	0,373781	22,500000	54,595000
3,356839	1017,871793	449,519	0,363667	22,480000	54,605000
3,333839	995,224400	452,976	0,354177	22,490000	54,630000
3,310870	971,099344	456,434	0,344069	22,490000	54,615000
3,287853	948,782909	459,895	0,334718	22,480000	54,605000
3,264888	924,816341	463,349	0,324676	22,480000	54,605000
3,241909	901,782052	466,807	0,315025	22,480000	54,630000
3,218872	878,976171	470,264	0,305469	22,480000	54,575000
3,195883	855,940716	473,720	0,295817	22,480000	54,615000
3,172923	832,202556	477,179	0,285871	22,480000	54,615000
3,149892	809,404833	480,632	0,276319	22,480000	54,605000
3,126957	785,075841	484,088	0,266125	22,480000	54,615000
3,103896	762,672006	487,540	0,256738	22,490000	54,590000
3,080926	738,452556	490,998	0,246590	22,490000	54,590000
3,057930	715,568597	494,456	0,237001	22,480000	54,565000
3,034866	692,414277	497,913	0,227300	22,500000	54,620000
3,011936	669,024556	501,366	0,217500	22,500000	54,580000
2,988927	645,934330	504,822	0,207825	22,500000	54,595000
2,965947	621,817432	508,277	0,197720	22,490000	54,575000
2,942923	598,601348	511,733	0,187992	22,480000	54,590000
2,919927	575,850239	515,191	0,178459	22,480000	54,590000
2,896873	552,500140	518,644	0,168676	22,490000	54,605000
2,873936	530,364335	522,105	0,159401	22,490000	54,590000
2,850904	506,895370	525,561	0,149567	22,480000	54,615000
2,827900	482,249403	529,015	0,139241	22,500000	54,595000
2,804919	460,202165	532,469	0,130003	22,480000	54,630000
2,781921	437,040852	535,924	0,120298	22,490000	54,575000
2,758892	413,145370	539,380	0,110286	22,490000	54,575000
2,735971	390,354639	542,837	0,100737	22,500000	54,610000
2,712950	367,366964	546,294	0,091105	22,490000	54,615000
2,689916	343,227924	549,749	0,080991	22,480000	54,590000
2,667003	321,376464	553,201	0,071835	22,480000	54,590000
2,643898	297,867877	556,656	0,061985	22,480000	54,605000
2,620963	273,949088	560,115	0,051963	22,480000	54,615000
2,597954	251,947298	563,569	0,042744	22,490000	54,615000
2,574914	228,423562	567,027	0,032888	22,480000	54,575000
2,551930	204,582852	570,484	0,022898	22,490000	54,590000
2,529012	181,816593	573,936	0,013359	22,480000	54,590000
2,505935	158,916319	577,407	0,003764	22,510000	54,595000
2,482981	135,968265	580,862	-0,005851	22,480000	54,605000
2,459930	112,679930	584,320	-0,015609	22,500000	54,580000
2,436970	88,279852	587,777	-0,025833	22,490000	54,605000
2,413968	66,271070	591,231	-0,035054	22,490000	54,605000
2,390955	42,446674	594,683	-0,045037	22,480000	54,590000
2,367941	19,758493	598,138	-0,054543	22,490000	54,605000
2,344986	-3,591606	601,592	-0,064327	22,470000	54,590000
2,339938	-8,542009	602,342	-0,066401	22,470000	54,590000