Folder: Nanoindentation_Analysis/Nanoindentation Datenauswertung/data/Saphir (part 2)

File: PM-Sa-150ms, 3um, 20nms ,3cycles
Quasi static measurement routine
Tip parameters (shape,radius, material...)
08.09.2022

Piezo position[nm]	MEMS displ.[nm]	Time[ms]	Cap [pf]	Temp [°C]	Rh [%]
eoh
1,288003	-0,242984	0,202	-0,076787	22,500000	54,390000
1,336087	0,093722	2,605	-0,076645	22,480000	54,345000
1,384089	-0,297366	5,012	-0,076810	22,480000	54,345000
1,431998	-0,039340	7,414	-0,076701	22,490000	54,345000
1,480068	-0,282324	9,818	-0,076803	22,500000	54,365000
1,528091	-0,415386	12,218	-0,076859	22,490000	54,385000
1,576070	-0,328606	14,622	-0,076823	22,480000	54,375000
1,624033	-0,399187	17,027	-0,076853	22,500000	54,350000
1,672073	-0,234884	19,431	-0,076783	22,500000	54,335000
1,720025	-0,352905	21,836	-0,076833	22,480000	54,375000
1,768053	-0,180502	24,242	-0,076760	22,500000	54,390000
1,816019	-0,494067	26,646	-0,076893	22,500000	54,390000
1,864066	-0,650270	29,052	-0,076958	22,500000	54,405000
1,912074	-0,431585	31,458	-0,076866	22,490000	54,360000
1,960049	-0,501009	33,860	-0,076896	22,490000	54,375000
2,008036	-0,595888	36,264	-0,076936	22,500000	54,350000
2,056062	-0,807631	38,666	-0,077025	22,490000	54,375000
2,104030	-0,948793	41,073	-0,077084	22,500000	54,390000
2,152066	-1,395420	43,479	-0,077273	22,490000	54,400000
2,199985	-2,194951	45,884	-0,077610	22,480000	54,400000
2,248043	-5,322497	48,286	-0,078930	22,500000	54,380000
2,296021	12,164220	50,692	-0,071551	22,480000	54,385000
2,344027	62,892245	53,095	-0,050144	22,480000	54,385000
2,392018	109,191027	55,500	-0,030605	22,480000	54,385000
2,440014	155,780232	57,905	-0,010945	22,490000	54,375000
2,488058	207,134229	60,307	0,010727	22,490000	54,375000
2,535929	254,240642	62,712	0,030605	22,500000	54,390000
2,584027	303,227285	65,121	0,051278	22,490000	54,385000
2,632063	347,826338	67,524	0,070099	22,480000	54,400000
2,680012	398,638829	69,925	0,091542	22,500000	54,380000
2,727986	445,290516	72,328	0,111229	22,490000	54,375000
2,775974	495,046607	74,728	0,132226	22,480000	54,345000
2,824053	542,928253	77,131	0,152432	22,490000	54,385000
2,872063	590,802957	79,536	0,172635	22,490000	54,375000
2,919997	638,050531	81,939	0,192573	22,490000	54,375000
2,955964	674,629971	84,343	0,208010	22,480000	54,375000
2,917000	638,536498	86,747	0,192778	22,500000	54,365000
2,869039	589,972184	89,150	0,172284	22,490000	54,385000
2,821026	541,619613	91,557	0,151879	22,480000	54,375000
2,772959	489,983292	93,960	0,130089	22,480000	54,345000
2,725004	441,630721	96,362	0,109684	22,480000	54,345000
2,677052	396,327014	98,765	0,090566	22,480000	54,415000
2,629015	344,948719	101,170	0,068884	22,500000	54,390000
2,580976	299,480709	103,576	0,049697	22,490000	54,375000
2,542079	254,608588	105,869	0,030761	22,480000	54,400000
2,590057	303,023641	108,271	0,051192	22,480000	54,400000
2,638026	351,220009	110,678	0,071531	22,500000	54,390000
2,685960	399,626962	113,081	0,091958	22,500000	54,390000
2,733976	448,284999	115,483	0,112492	22,480000	54,385000
2,781992	496,394587	117,888	0,132794	22,490000	54,385000
2,830037	544,645337	120,292	0,153156	22,500000	54,390000
2,878034	594,111004	122,695	0,174031	22,490000	54,375000
2,925984	643,803456	125,102	0,195001	22,490000	54,375000
2,974011	691,921144	127,507	0,215307	22,500000	54,365000
3,021927	737,749000	129,911	0,234646	22,490000	54,400000
3,070013	788,288424	132,314	0,255974	22,480000	54,415000
3,117971	836,805298	134,718	0,276448	22,480000	54,415000
3,165924	882,571831	137,125	0,295761	22,490000	54,375000
3,213975	929,458401	139,531	0,315547	22,490000	54,400000
3,261982	977,411785	141,937	0,335784	22,480000	54,375000
3,309925	1028,209234	144,342	0,357220	22,480000	54,375000
3,357944	1073,378721	146,744	0,376282	22,490000	54,400000
3,405917	1124,428410	149,148	0,397825	22,500000	54,405000
3,453919	1171,260599	151,551	0,417588	22,480000	54,400000
3,501898	1218,953643	153,953	0,437714	22,480000	54,375000
3,549926	1268,576672	156,358	0,458655	22,500000	54,405000
3,597865	1316,294015	158,763	0,478792	22,490000	54,400000
3,618860	1339,228192	161,170	0,488470	22,490000	54,400000
3,570895	1291,964418	163,578	0,468525	22,480000	54,375000
3,522869	1243,619946	165,984	0,448124	22,490000	54,360000
3,474911	1192,014866	168,386	0,426346	22,500000	54,390000
3,427002	1143,560473	170,792	0,405898	22,480000	54,415000
3,378929	1095,913711	173,195	0,385792	22,490000	54,375000
3,330892	1049,191443	175,598	0,366075	22,490000	54,385000
3,282933	1001,277399	178,001	0,345855	22,490000	54,385000
3,234916	949,993983	180,405	0,324213	22,490000	54,415000
3,186949	902,833188	182,806	0,304312	22,490000	54,360000
3,138946	855,475692	185,210	0,284327	22,480000	54,400000
3,091015	808,095055	187,615	0,264332	22,490000	54,360000
3,042955	759,789923	190,017	0,243947	22,490000	54,360000
3,082048	795,201885	192,305	0,258891	22,490000	54,375000
3,129996	844,667552	194,710	0,279766	22,490000	54,375000
3,177938	892,706559	197,117	0,300038	22,500000	54,390000
3,225927	941,285915	199,523	0,320539	22,490000	54,385000
3,273947	986,620862	201,928	0,339670	22,490000	54,415000
3,321933	1037,802457	204,334	0,361269	22,480000	54,385000
3,370005	1083,482209	206,737	0,380545	22,490000	54,385000
3,417900	1131,317573	209,145	0,400732	22,490000	54,385000
3,465866	1182,295524	211,550	0,422245	22,490000	54,415000
3,513871	1228,421903	213,954	0,441710	22,490000	54,375000
3,561880	1276,375287	216,358	0,461946	22,480000	54,400000
3,609846	1328,011608	218,764	0,483737	22,490000	54,400000
3,657902	1374,436510	221,168	0,503328	22,490000	54,385000
3,705850	1421,471184	223,570	0,523177	22,480000	54,400000
3,753864	1468,859921	225,973	0,543175	22,490000	54,345000
3,801856	1517,517958	228,376	0,563708	22,490000	54,345000
3,849820	1564,655611	230,779	0,583601	22,490000	54,375000
3,897832	1615,664803	233,181	0,605126	22,490000	54,375000
3,945865	1660,859745	235,583	0,624199	22,490000	54,375000
3,993855	1711,868937	237,986	0,645725	22,480000	54,375000
4,041856	1759,594379	240,390	0,665865	22,480000	54,385000
4,089824	1804,678243	242,794	0,684890	22,500000	54,390000
4,137835	1852,544848	245,199	0,705090	22,500000	54,365000
4,185781	1903,679003	247,602	0,726668	22,490000	54,385000
4,233793	1950,706735	250,006	0,746514	22,490000	54,385000
4,281800	1996,919894	252,412	0,766016	22,490000	54,375000
4,266790	1984,394670	254,816	0,760730	22,490000	54,345000
4,218787	1937,539340	257,223	0,740958	22,490000	54,345000
4,170778	1887,477784	259,628	0,719832	22,490000	54,400000
4,122872	1839,133312	262,030	0,699430	22,500000	54,420000
4,074818	1793,133053	264,435	0,680018	22,490000	54,400000
4,026805	1743,894170	266,838	0,659239	22,490000	54,375000
3,978846	1697,281824	269,239	0,639569	22,490000	54,375000
3,930874	1645,998408	271,641	0,617927	22,480000	54,360000
3,882876	1597,583355	274,045	0,597496	22,490000	54,400000
3,834837	1552,483292	276,448	0,578464	22,490000	54,375000
3,786860	1502,845222	278,851	0,557517	22,490000	54,375000
3,738872	1455,590705	281,257	0,537575	22,500000	54,390000
3,690892	1407,496159	283,660	0,517279	22,490000	54,385000
3,642833	1357,685686	286,065	0,496259	22,490000	54,400000
3,594895	1310,156944	288,468	0,476202	22,490000	54,400000
3,546883	1259,813065	290,871	0,454957	22,500000	54,420000
3,498901	1214,125213	293,274	0,435677	22,500000	54,420000
3,450880	1166,141745	295,683	0,415428	22,490000	54,385000
3,402909	1117,413128	298,089	0,394864	22,490000	54,345000
3,354928	1069,593963	300,493	0,374685	22,490000	54,375000
3,306907	1020,238216	302,895	0,353856	22,490000	54,375000
3,258952	973,013783	305,300	0,333928	22,500000	54,380000
3,210948	921,714168	307,705	0,312279	22,490000	54,345000
3,162953	876,505341	310,111	0,293201	22,500000	54,390000
3,114964	825,010182	312,515	0,271470	22,500000	54,390000
3,066979	776,907537	314,918	0,251171	22,480000	54,375000
3,018967	728,641745	317,322	0,230803	22,480000	54,375000
2,970950	683,518541	319,724	0,211761	22,480000	54,385000
2,923020	635,267791	322,128	0,191399	22,490000	54,360000
2,874992	584,148678	324,531	0,169827	22,490000	54,400000
2,827027	535,937269	326,934	0,149481	22,490000	54,400000
2,779080	488,972018	329,336	0,129662	22,480000	54,360000
2,731001	439,836113	331,741	0,108927	22,490000	54,375000
2,683051	391,687185	334,146	0,088608	22,490000	54,375000
2,634970	343,922403	336,549	0,068451	22,490000	54,385000
2,587079	295,444868	338,952	0,047994	22,500000	54,405000
2,539037	247,460243	341,355	0,027744	22,500000	54,390000
2,491068	199,319415	343,756	0,007429	22,490000	54,400000
2,443017	154,517874	346,161	-0,011478	22,480000	54,385000
2,395054	103,672986	348,567	-0,032934	22,480000	54,400000
2,347032	56,848897	350,971	-0,052694	22,480000	54,400000
2,299037	9,734384	353,372	-0,072576	22,490000	54,400000
2,251025	-37,700635	355,777	-0,092594	22,480000	54,385000
2,203003	-87,417386	358,183	-0,113574	22,500000	54,420000
2,155018	-135,205310	360,588	-0,133741	22,490000	54,385000
2,107051	-184,702218	362,992	-0,154628	22,490000	54,375000
2,059047	-229,323256	365,394	-0,173458	22,490000	54,375000
2,011048	-279,416053	367,800	-0,194598	22,500000	54,380000
1,962991	-327,501342	370,204	-0,214890	22,500000	54,380000
1,915059	-373,016791	372,607	-0,234097	22,490000	54,375000
1,867031	-422,137654	375,012	-0,254826	22,480000	54,375000
1,819030	-468,585697	377,416	-0,274427	22,500000	54,390000
1,771033	-518,944618	379,822	-0,295679	22,490000	54,330000
1,723058	-565,470185	382,225	-0,315312	22,490000	54,385000
1,675073	-612,381054	384,628	-0,335109	22,500000	54,365000
1,627094	-662,943619	387,031	-0,356446	22,490000	54,375000
1,579066	-710,481617	389,435	-0,376507	22,490000	54,375000
1,531118	-757,007183	391,839	-0,396141	22,490000	54,430000
1,483133	-803,181002	394,242	-0,415626	22,480000	54,375000
1,435146	-850,381137	396,647	-0,435545	22,480000	54,385000
1,387033	-898,333364	399,051	-0,455781	22,500000	54,365000
1,339093	-0,124963	401,454	-0,076737	22,500000	54,365000
1,291082	0,211743	403,860	-0,076595	22,500000	54,380000
1,288051	0,226785	404,010	-0,076588	22,500000	54,380000

File: PM-Sa-150ms, 3um, 20nms ,9cycles-3
Quasi static measurement routine
Tip parameters (shape,radius, material...)
08.09.2022

Piezo position[nm]	MEMS displ.[nm]	Time[ms]	Cap [pf]	Temp [°C]	Rh [%]
eoh
1,251856	-0,234884	0,216	-0,076740	22,480000	54,480000
1,333927	0,016199	12,538	-0,076634	22,490000	54,480000
1,415884	-0,336706	24,856	-0,076783	22,480000	54,510000
1,497804	-0,172403	37,175	-0,076714	22,490000	54,525000
1,579893	-0,149261	49,491	-0,076704	22,490000	54,525000
1,661872	-0,172403	61,813	-0,076714	22,500000	54,485000
1,743900	-0,423486	74,140	-0,076820	22,490000	54,480000
1,825835	-0,305465	86,463	-0,076770	22,480000	54,480000
1,907828	-0,485967	98,781	-0,076846	22,490000	54,495000
1,989818	-0,689610	111,098	-0,076932	22,490000	54,495000
2,071778	-0,619030	123,412	-0,076902	22,490000	54,495000
2,153825	-1,316739	135,730	-0,077197	22,480000	54,480000
2,235757	-10,753758	148,047	-0,081179	22,480000	54,495000
2,317778	71,380471	160,359	-0,046519	22,480000	54,480000
2,399778	154,291090	172,683	-0,011530	22,480000	54,510000
2,472853	227,379388	185,009	0,019313	22,480000	54,480000
2,390777	145,591121	197,334	-0,015202	22,490000	54,495000
2,308817	62,892245	209,653	-0,050101	22,490000	54,510000
2,226812	-19,852914	221,975	-0,085019	22,480000	54,495000
2,189764	-58,180678	234,183	-0,101193	22,490000	54,495000
2,271796	24,643161	246,505	-0,066242	22,480000	54,510000
2,353805	106,659369	258,834	-0,031631	22,490000	54,495000
2,435828	190,407703	271,151	0,003711	22,480000	54,495000
2,517822	272,573173	283,472	0,038385	22,490000	54,480000
2,599776	353,751666	295,792	0,072642	22,490000	54,525000
2,681808	435,713492	308,111	0,107230	22,480000	54,495000
2,634817	390,268624	320,429	0,088052	22,480000	54,480000
2,552766	306,637154	332,749	0,052760	22,480000	54,510000
2,470818	224,832688	345,067	0,018238	22,480000	54,510000
2,388804	141,780908	357,391	-0,016810	22,480000	54,510000
2,361812	113,157444	369,592	-0,028889	22,490000	54,495000
2,443795	196,631554	381,916	0,006337	22,480000	54,480000
2,525813	278,906944	394,236	0,041058	22,480000	54,510000
2,607793	361,016875	406,555	0,075708	22,480000	54,495000
2,689776	443,865012	418,881	0,110670	22,490000	54,495000
2,771782	526,170487	431,198	0,145403	22,470000	54,535000
2,853724	609,026724	443,509	0,180368	22,490000	54,525000
2,906787	662,347730	455,833	0,202870	22,480000	54,525000
2,824801	579,124704	468,159	0,167750	22,480000	54,535000
2,742772	496,919894	480,483	0,133059	22,490000	54,510000
2,660801	414,989309	492,801	0,098484	22,480000	54,480000
2,578786	331,906287	505,118	0,063423	22,490000	54,510000
2,503825	255,150094	517,317	0,031032	22,490000	54,525000
2,585805	337,816573	529,640	0,065917	22,490000	54,525000
2,667798	421,385562	541,973	0,101184	22,480000	54,535000
2,749753	504,224443	554,300	0,136142	22,480000	54,495000
2,831797	585,951385	566,625	0,170630	22,490000	54,550000
2,913755	668,344796	578,949	0,205400	22,490000	54,525000
2,995750	750,784490	591,268	0,240190	22,480000	54,495000
3,077759	833,936935	603,593	0,275280	22,480000	54,495000
3,126805	883,801790	615,914	0,296323	22,480000	54,495000
3,044813	800,798606	628,234	0,261296	22,490000	54,510000
2,962768	717,520040	640,567	0,226152	22,500000	54,500000
2,880823	636,114762	652,888	0,191799	22,490000	54,480000
2,798799	553,023641	665,215	0,156735	22,490000	54,480000
2,716842	470,897512	677,537	0,122078	22,480000	54,525000
2,699805	452,729284	689,769	0,114411	22,490000	54,495000
2,781793	534,667969	702,097	0,148989	22,490000	54,510000
2,863815	617,076422	714,422	0,183765	22,490000	54,495000
2,945788	699,406194	726,744	0,218508	22,490000	54,525000
3,027805	782,018291	739,067	0,253371	22,490000	54,510000
3,109793	864,998334	751,385	0,288388	22,480000	54,525000
3,191780	948,168135	763,710	0,323486	22,480000	54,480000
3,273766	1030,184344	776,031	0,358097	22,490000	54,510000
3,355684	1110,993733	788,349	0,392198	22,490000	54,510000
3,292747	1048,470592	800,669	0,365813	22,480000	54,495000
3,210793	966,375703	812,993	0,331169	22,480000	54,510000
3,128707	882,908536	825,315	0,295946	22,480000	54,525000
3,046776	801,291515	837,641	0,261504	22,490000	54,525000
2,964810	719,071664	849,964	0,226807	22,490000	54,565000
2,882764	635,597554	862,282	0,191581	22,490000	54,535000
2,865816	617,216427	874,495	0,183824	22,480000	54,525000
2,947856	700,558631	886,815	0,218995	22,490000	54,535000
3,029727	783,021466	899,130	0,253794	22,480000	54,495000
3,111776	865,508599	911,456	0,288604	22,490000	54,510000
3,193776	947,634729	923,773	0,323261	22,490000	54,510000
3,275763	1029,918219	936,096	0,357984	22,480000	54,525000
3,357745	1113,768374	948,413	0,393369	22,480000	54,535000
3,439698	1195,557798	960,722	0,427884	22,480000	54,535000
3,521666	1276,696951	973,047	0,462125	22,480000	54,535000
3,570680	1326,530565	985,363	0,483155	22,480000	54,525000
3,488717	1244,654362	997,686	0,448603	22,480000	54,535000
3,406724	1161,305215	1010,012	0,413430	22,500000	54,515000
3,324730	1079,367687	1022,336	0,378852	22,480000	54,495000
3,242767	997,719426	1034,650	0,344396	22,500000	54,500000
3,160776	914,833105	1046,971	0,309418	22,480000	54,525000
3,078799	831,303456	1059,290	0,274169	22,490000	54,535000
3,003833	754,726609	1071,497	0,241854	22,480000	54,510000
3,085825	838,381220	1083,816	0,277156	22,490000	54,535000
3,167809	920,459910	1096,134	0,311793	22,490000	54,535000
3,249746	1003,424911	1108,454	0,346804	22,480000	54,535000
3,331716	1084,721425	1120,772	0,381111	22,480000	54,510000
3,413675	1167,474683	1133,095	0,416033	22,490000	54,480000
3,495686	1250,862013	1145,414	0,451223	22,490000	54,510000
3,577682	1332,996242	1157,733	0,485883	22,480000	54,525000
3,659743	1414,644503	1170,051	0,520339	22,480000	54,525000
3,741697	1496,488309	1182,371	0,554877	22,480000	54,525000
3,794674	1550,312639	1194,698	0,577591	22,490000	54,510000
3,712751	1468,303373	1207,015	0,542983	22,480000	54,525000
3,630683	1384,742484	1219,346	0,507720	22,490000	54,535000
3,548688	1302,146586	1231,672	0,472865	22,490000	54,535000
3,466771	1220,826931	1244,001	0,438548	22,480000	54,525000
3,384755	1137,838789	1256,327	0,403527	22,480000	54,535000
3,302734	1055,650178	1268,652	0,368843	22,480000	54,565000
3,220767	973,131804	1280,973	0,334021	22,480000	54,510000
3,195779	946,106246	1293,171	0,322616	22,490000	54,495000
3,277740	1029,118687	1305,495	0,357647	22,480000	54,535000
3,359722	1111,809464	1317,818	0,392542	22,480000	54,510000
3,441746	1193,692610	1330,137	0,427097	22,480000	54,535000
3,523713	1277,009358	1342,459	0,462257	22,480000	54,510000
3,605696	1359,269707	1354,791	0,496971	22,480000	54,480000
3,687686	1442,116688	1367,114	0,531932	22,490000	54,510000
3,769662	1523,914211	1379,434	0,566451	22,490000	54,525000
3,851717	1607,043515	1391,760	0,601531	22,480000	54,510000
3,933667	1688,879221	1404,077	0,636066	22,490000	54,535000
4,015663	1769,611087	1416,404	0,670135	22,490000	54,525000
3,964543	1719,439610	1428,719	0,648962	22,490000	54,535000
3,882670	1636,945535	1441,045	0,614150	22,490000	54,525000
3,800708	1554,262857	1453,367	0,579258	22,490000	54,525000
3,718680	1472,896919	1465,692	0,544921	22,500000	54,540000
3,636705	1389,876379	1478,010	0,509887	22,480000	54,525000
3,554754	1306,520290	1490,334	0,474710	22,480000	54,495000
3,472712	1225,576681	1502,659	0,440552	22,490000	54,535000
3,390763	1142,941443	1514,980	0,405680	22,490000	54,495000
3,357727	1108,179752	1527,192	0,391011	22,490000	54,535000
3,439669	1191,811223	1539,513	0,426303	22,480000	54,510000
3,521660	1274,282157	1551,834	0,461106	22,490000	54,525000
3,603693	1356,063481	1564,161	0,495618	22,490000	54,565000
3,685674	1438,291432	1576,481	0,530318	22,480000	54,535000
3,767662	1520,982209	1588,802	0,565213	22,490000	54,535000
3,849610	1603,430002	1601,127	0,600006	22,490000	54,550000
3,931645	1685,509849	1613,450	0,634644	22,500000	54,515000
4,013667	1767,910203	1625,777	0,669417	22,490000	54,525000
4,095573	1850,522299	1638,105	0,704279	22,490000	54,535000
4,177629	1931,927577	1650,433	0,738632	22,490000	54,535000
4,246626	2003,065064	1662,755	0,768652	22,490000	54,535000
4,164601	1920,029482	1675,074	0,733611	22,490000	54,510000
4,082661	1836,892078	1687,396	0,698527	22,480000	54,535000
4,000664	1754,303123	1699,722	0,663675	22,490000	54,535000
3,918658	1673,070248	1712,048	0,629395	22,490000	54,565000
3,836706	1589,517458	1724,372	0,594135	22,490000	54,535000
3,754704	1506,913461	1736,699	0,559276	22,480000	54,550000
3,672701	1425,680585	1749,027	0,524996	22,490000	54,575000
3,590733	1342,096555	1761,347	0,489724	22,480000	54,550000
3,508762	1260,079189	1773,674	0,455112	22,490000	54,535000
3,426700	1178,957392	1785,999	0,420879	22,500000	54,540000
3,344762	1095,442785	1798,321	0,385636	22,480000	54,525000
3,262793	1013,630221	1810,641	0,351111	22,500000	54,500000
3,180748	931,182427	1822,967	0,316318	22,490000	54,535000
3,098821	849,087539	1835,289	0,281674	22,490000	54,525000
3,016788	767,188194	1847,607	0,247112	22,480000	54,525000
2,934847	684,913961	1859,927	0,212393	22,480000	54,525000
2,852840	601,697877	1872,245	0,177275	22,480000	54,510000
2,770856	521,084031	1884,570	0,143256	22,480000	54,550000
2,688880	437,985967	1896,898	0,108189	22,500000	54,540000
2,606862	356,557548	1909,215	0,073826	22,480000	54,550000
2,524874	274,721842	1921,537	0,039292	22,490000	54,525000
2,442835	192,766958	1933,861	0,004707	22,480000	54,535000
2,360850	110,601488	1946,182	-0,029967	22,490000	54,550000
2,278832	28,695201	1958,495	-0,064532	22,480000	54,535000
2,196797	-54,348480	1970,813	-0,099576	22,480000	54,535000
2,114840	-135,212252	1983,138	-0,133701	22,490000	54,535000
2,032842	-216,719352	1995,454	-0,168097	22,490000	54,525000
1,950899	-298,125787	2007,776	-0,202450	22,480000	54,525000
1,868899	-380,736726	2020,093	-0,237312	22,490000	54,525000
1,786895	-462,573589	2032,417	-0,271847	22,500000	54,570000
1,704885	-543,273058	2044,736	-0,305902	22,480000	54,550000
1,622913	-625,188602	2057,060	-0,340471	22,480000	54,525000
1,540965	-707,690777	2069,374	-0,375287	22,500000	54,555000
1,458922	-788,782490	2081,689	-0,409507	22,490000	54,550000
1,376958	-870,603155	2094,007	-0,444036	22,480000	54,535000
1,294894	-950,941619	2106,330	-0,477938	22,480000	54,535000
1,251943	-993,212659	2112,792	-0,495777	22,480000	54,525000