Folder: Nanoindentation_Analysis/Nanoindentation Datenauswertung/data/Saphir first fibed MEMS

File: AR-SA-200-1-200-4um-diff_LF-4x4-1
Quasi static measurement routine
Tip parameters (shape,radius, material...)
31.08.2022

Piezo position[nm]	MEMS displ.[nm]	Time[ms]	Cap [pf]	Temp [°C]	Rh [%]
eoh

X-Pos [um]	Y-Pos [um]
0,000386	0,000993

POC
1,244053
0,752127	-0,076064	0,545	-0,134581	22,540000	50,200000
0,762099	-0,076064	1,046	-0,134581	22,540000	50,200000
0,772101	-0,008588	1,547	-0,134554	22,540000	50,215000
0,782082	-0,141086	2,049	-0,134607	22,540000	50,215000
0,792064	0,182799	2,551	-0,134478	22,540000	50,215000
0,802103	0,182799	3,052	-0,134478	22,540000	50,215000
0,812106	0,024537	3,553	-0,134541	22,530000	50,225000
0,822038	0,215923	4,055	-0,134465	22,530000	50,225000
0,832081	0,057661	4,556	-0,134528	22,530000	50,225000
0,842155	-0,041712	5,057	-0,134567	22,530000	50,225000
0,852051	-0,116550	5,559	-0,134597	22,540000	50,200000
0,862083	-0,116550	6,061	-0,134597	22,540000	50,200000
0,872099	0,099374	6,562	-0,134511	22,540000	50,200000
0,882067	0,116550	7,063	-0,134504	22,540000	50,200000
0,892085	0,000000	7,565	-0,134551	22,530000	50,240000
0,902051	0,132498	8,066	-0,134498	22,530000	50,240000
0,912116	-0,017176	8,566	-0,134558	22,530000	50,240000
0,922069	0,000000	9,067	-0,134551	22,530000	50,240000
0,932092	-0,050300	9,568	-0,134571	22,540000	50,215000
0,942099	-0,041712	10,069	-0,134567	22,540000	50,215000
0,952086	-0,474786	10,569	-0,134740	22,540000	50,215000
0,962089	-0,191387	11,069	-0,134627	22,540000	50,215000
0,972098	-0,025764	11,570	-0,134561	22,540000	50,215000
0,982122	0,099374	12,071	-0,134511	22,540000	50,215000
0,992053	0,057661	12,571	-0,134528	22,540000	50,215000
1,002103	-0,034351	13,073	-0,134564	22,540000	50,215000
1,012094	-0,640409	13,573	-0,134806	22,530000	50,215000
1,022114	-0,182799	14,075	-0,134624	22,530000	50,215000
1,032114	-0,175438	14,575	-0,134621	22,530000	50,215000
1,042117	-0,158262	15,075	-0,134614	22,530000	50,215000
1,052059	-0,107962	15,576	-0,134594	22,540000	50,215000
1,062102	-0,125137	16,077	-0,134601	22,540000	50,215000
1,072076	-0,199974	16,578	-0,134630	22,540000	50,215000
1,082040	-0,307936	17,078	-0,134673	22,540000	50,215000
1,092068	-147,705078	17,580	-0,193337	22,540000	50,215000
1,102127	-137,234022	18,081	-0,189170	22,540000	50,215000
1,112092	-127,294186	18,583	-0,185214	22,540000	50,215000
1,122096	-117,878209	19,086	-0,181466	22,540000	50,215000
1,132076	-106,326309	19,588	-0,176869	22,540000	50,215000
1,142026	-97,533566	20,089	-0,173369	22,540000	50,215000
1,152064	-85,724030	20,591	-0,168669	22,540000	50,215000
1,162125	-77,646533	21,092	-0,165454	22,540000	50,215000
1,172064	-67,807298	21,593	-0,161538	22,540000	50,215000
1,182079	-56,537571	22,095	-0,157053	22,540000	50,215000
1,192080	-45,824827	22,596	-0,152789	22,540000	50,215000
1,202063	-36,932710	23,097	-0,149250	22,540000	50,215000
1,212051	-26,303392	23,598	-0,145020	22,540000	50,200000
1,222053	-16,215109	24,098	-0,141004	22,540000	50,200000
1,232066	-7,563452	24,601	-0,137561	22,540000	50,200000
1,242071	2,775106	25,104	-0,133446	22,540000	50,200000
1,252027	15,199287	25,604	-0,128501	22,540000	50,225000
1,262089	22,771327	26,105	-0,125488	22,540000	50,225000
1,272103	32,835074	26,606	-0,121482	22,540000	50,225000
1,282106	43,189581	27,107	-0,117361	22,540000	50,225000
1,292119	53,328164	27,608	-0,113326	22,540000	50,225000
1,302042	63,010364	28,110	-0,109473	22,540000	50,225000
1,312140	73,207836	28,610	-0,105414	22,540000	50,225000
1,322116	84,451800	29,111	-0,100939	22,540000	50,225000
1,332092	93,244543	29,611	-0,097439	22,540000	50,240000
1,342124	104,032124	30,114	-0,093146	22,540000	50,240000
1,352137	114,087282	30,615	-0,089144	22,540000	50,240000
1,362070	123,569508	31,118	-0,085370	22,540000	50,240000
1,372097	133,284832	31,620	-0,081503	22,550000	50,205000
1,382071	143,457767	32,121	-0,077455	22,550000	50,205000
1,392086	155,358089	32,622	-0,072718	22,550000	50,205000
1,402058	165,638986	33,124	-0,068626	22,550000	50,205000
1,412041	175,046374	33,628	-0,064882	22,540000	50,215000
1,422093	184,279552	34,129	-0,061208	22,540000	50,215000
1,432054	194,210800	34,631	-0,057255	22,540000	50,215000
1,442071	204,773869	35,131	-0,053051	22,540000	50,215000
1,452067	214,562804	35,631	-0,049155	22,540000	50,215000
1,462034	224,062206	36,133	-0,045374	22,540000	50,215000
1,462027	225,823944	36,635	-0,044673	22,540000	50,215000
1,462037	225,441171	37,138	-0,044825	22,540000	50,215000
1,452030	215,511149	37,639	-0,048777	22,530000	50,200000
1,442020	204,939492	38,139	-0,052985	22,530000	50,200000
1,432078	196,238762	38,640	-0,056448	22,530000	50,200000
1,422062	185,026696	39,141	-0,060910	22,530000	50,200000
1,412112	176,275665	39,641	-0,064393	22,540000	50,200000
1,402057	163,884609	40,142	-0,069325	22,540000	50,200000
1,392127	155,824287	40,643	-0,072533	22,540000	50,200000
1,382085	143,682279	41,145	-0,077365	22,540000	50,200000
1,372050	134,041791	41,646	-0,081202	22,540000	50,200000
1,362063	124,958288	42,146	-0,084817	22,540000	50,200000
1,352063	114,668803	42,647	-0,088913	22,540000	50,200000
1,342075	103,865274	43,147	-0,093212	22,540000	50,200000
1,332063	94,167125	43,648	-0,097072	22,540000	50,225000
1,322040	83,612643	44,148	-0,101273	22,540000	50,225000
1,312083	73,872782	44,649	-0,105149	22,540000	50,225000
1,302060	63,950122	45,151	-0,109099	22,540000	50,225000
1,292023	53,761238	45,653	-0,113154	22,540000	50,200000
1,282116	43,880290	46,155	-0,117086	22,540000	50,200000
1,272038	31,829067	46,656	-0,121883	22,540000	50,200000
1,262047	21,773909	47,157	-0,125885	22,540000	50,200000
1,252069	12,157958	47,658	-0,129712	22,540000	50,200000
1,242104	2,649969	48,160	-0,133496	22,540000	50,200000
1,232064	-7,297228	48,663	-0,137455	22,540000	50,200000
1,222019	-18,857716	49,164	-0,142056	22,540000	50,200000
1,212108	-27,051763	49,666	-0,145317	22,540000	50,190000
1,202065	-37,148634	50,166	-0,149336	22,540000	50,190000
1,192129	-48,858796	50,667	-0,153997	22,540000	50,190000
1,182101	-57,011130	51,169	-0,157241	22,540000	50,190000
1,172059	-67,034391	51,672	-0,161230	22,540000	50,225000
1,162061	-79,408272	52,173	-0,166155	22,540000	50,225000
1,152047	-87,012209	52,676	-0,169182	22,540000	50,225000
1,142081	-98,148212	53,177	-0,173614	22,540000	50,225000
1,132090	-108,321147	53,677	-0,177663	22,540000	50,225000
1,122076	-118,651117	54,177	-0,181774	22,540000	50,225000
1,112119	-128,582365	54,678	-0,185727	22,540000	50,225000
1,102105	-137,449945	55,178	-0,189256	22,540000	50,225000
1,092067	-147,921001	55,679	-0,193423	22,540000	50,215000
1,082054	-158,409234	56,181	-0,197598	22,540000	50,215000
1,072118	-168,091434	56,682	-0,201451	22,540000	50,215000
1,062065	-180,722951	57,185	-0,206479	22,540000	50,215000
1,052075	-188,916997	57,686	-0,209740	22,530000	50,215000
1,042049	-201,109306	58,186	-0,214592	22,530000	50,215000
1,032068	-208,880094	58,686	-0,217685	22,530000	50,215000
1,022174	-221,038052	59,187	-0,222524	22,530000	50,215000
1,012138	-229,240686	59,687	-0,225789	22,540000	50,240000
1,002085	-239,346145	60,190	-0,229811	22,540000	50,240000
0,992087	-250,739783	60,693	-0,234345	22,540000	50,240000
0,982132	-260,214647	61,194	-0,238116	22,540000	50,240000
0,972052	-269,912796	61,697	-0,241976	22,540000	50,215000
0,962071	-34,090128	62,197	-0,148119	22,540000	50,215000
0,952092	-31,497821	62,699	-0,147087	22,540000	50,215000
0,942054	-29,403610	63,201	-0,146253	22,540000	50,215000
0,932130	-26,893501	63,702	-0,145254	22,520000	50,200000
0,922115	-25,215187	64,202	-0,144586	22,520000	50,200000
0,912138	-23,968721	64,704	-0,144090	22,520000	50,200000
0,902057	-22,605704	65,205	-0,143548	22,520000	50,200000
0,892141	-21,084426	65,708	-0,142942	22,540000	50,200000
0,882117	-19,987633	66,208	-0,142506	22,540000	50,200000
0,872070	-18,807416	66,711	-0,142036	22,540000	50,200000
0,862116	-17,926547	67,212	-0,141686	22,540000	50,200000
0,852099	-17,021141	67,715	-0,141325	22,550000	50,220000
0,842102	-16,131684	68,218	-0,140971	22,550000	50,220000
0,832121	-15,391901	68,720	-0,140677	22,550000	50,220000
0,822139	-14,493856	69,220	-0,140319	22,550000	50,220000
0,812016	-13,480488	69,724	-0,139916	22,550000	50,220000
0,802128	-13,040054	70,225	-0,139741	22,550000	50,220000
0,792085	-12,167772	70,725	-0,139394	22,550000	50,220000
0,782079	-11,734699	71,226	-0,139221	22,550000	50,220000
0,772119	-10,712743	71,728	-0,138814	22,530000	50,190000
0,762101	-10,148398	72,230	-0,138590	22,530000	50,190000
0,752105	-9,607363	72,732	-0,138375	22,530000	50,190000
0,744099	-8,369484	73,133	-0,137882	22,530000	50,190000

X-Pos [um]	Y-Pos [um]
0,000480	10,003599

POC
1,232110
0,742178	-0,315297	0,641	-0,134627	22,540000	50,225000
0,754162	-0,123911	1,243	-0,134551	22,540000	50,225000
0,766137	-0,107962	1,845	-0,134544	22,540000	50,225000
0,778180	-0,264997	2,445	-0,134607	22,540000	50,225000
0,790141	-0,224511	3,045	-0,134591	22,540000	50,225000
0,802113	-0,041712	3,648	-0,134518	22,540000	50,225000
0,814171	-0,041712	4,249	-0,134518	22,540000	50,225000
0,826142	-0,240460	4,851	-0,134597	22,540000	50,215000
0,838121	-0,082198	5,452	-0,134534	22,540000	50,215000
0,850180	-0,191387	6,055	-0,134578	22,540000	50,215000
0,862163	-0,041712	6,655	-0,134518	22,540000	50,215000
0,874155	-0,215923	7,258	-0,134587	22,530000	50,215000
0,886192	-0,207336	7,860	-0,134584	22,530000	50,215000
0,898201	-0,323885	8,460	-0,134630	22,530000	50,215000
0,910167	-0,141086	9,063	-0,134558	22,530000	50,215000
0,922146	0,017176	9,666	-0,134495	22,530000	50,215000
0,934184	-0,099374	10,266	-0,134541	22,530000	50,215000
0,946140	-0,165623	10,868	-0,134567	22,540000	50,215000
0,958104	-0,282173	11,471	-0,134614	22,540000	50,215000
0,970114	-0,348422	12,073	-0,134640	22,540000	50,215000
0,982207	-0,231872	12,674	-0,134594	22,540000	50,215000
0,994115	-0,249048	13,276	-0,134601	22,540000	50,215000
1,006069	-0,132498	13,876	-0,134554	22,540000	50,215000
1,018140	-0,141086	14,477	-0,134558	22,540000	50,215000
1,030144	-0,323885	15,079	-0,134630	22,560000	50,230000
1,042185	-0,306709	15,680	-0,134624	22,560000	50,230000
1,054180	-0,257636	16,281	-0,134604	22,560000	50,230000
1,066122	-0,590109	16,881	-0,134736	22,560000	50,230000
1,078184	-0,290760	17,484	-0,134617	22,560000	50,230000
1,090160	-0,390134	18,088	-0,134657	22,560000	50,230000
1,102125	-0,107962	18,692	-0,134544	22,560000	50,230000
1,114148	-0,623233	19,293	-0,134750	22,540000	50,200000
1,126168	-0,374185	19,895	-0,134650	22,540000	50,200000
1,138140	-0,374185	20,497	-0,134650	22,540000	50,200000
1,150174	-0,539808	21,099	-0,134716	22,550000	50,230000
1,162117	-0,955706	21,700	-0,134882	22,550000	50,230000
1,174129	-51,134579	22,301	-0,154853	22,550000	50,230000
1,186109	-37,638142	22,903	-0,149481	22,540000	50,200000
1,198164	-27,017411	23,506	-0,145254	22,540000	50,200000
1,210119	-15,416438	24,109	-0,140637	22,540000	50,200000
1,222201	-3,265841	24,713	-0,135801	22,540000	50,200000
1,234168	8,510570	25,316	-0,131114	22,540000	50,200000
1,246150	22,447442	25,918	-0,125567	22,540000	50,200000
1,258128	32,536952	26,520	-0,121552	22,540000	50,200000
1,270148	45,742629	27,123	-0,116296	22,540000	50,200000
1,282139	56,163385	27,723	-0,112148	22,540000	50,200000
1,294172	67,915260	28,323	-0,107471	22,540000	50,200000
1,306102	80,687863	28,925	-0,102388	22,540000	50,200000
1,318158	92,530524	29,526	-0,097674	22,540000	50,200000
1,330179	104,190386	30,131	-0,093034	22,540000	50,200000
1,342121	118,235219	30,731	-0,087444	22,540000	50,200000
1,354147	128,058505	31,331	-0,083534	22,540000	50,215000
1,366149	139,593230	31,932	-0,078943	22,540000	50,215000
1,378207	151,893501	32,533	-0,074048	22,540000	50,215000
1,390132	165,913798	33,135	-0,068468	22,540000	50,190000
1,402145	177,556484	33,737	-0,063834	22,540000	50,190000
1,414149	187,919578	34,337	-0,059709	22,540000	50,190000
1,426182	200,743709	34,940	-0,054605	22,540000	50,190000
1,438099	212,386395	35,541	-0,049972	22,540000	50,190000
1,450162	223,962832	36,143	-0,045364	22,540000	50,190000
1,462136	238,273889	36,744	-0,039668	22,540000	50,190000
1,474117	250,623233	37,345	-0,034753	22,540000	50,190000
1,486127	260,114047	37,946	-0,030976	22,540000	50,190000
1,498145	274,317142	38,547	-0,025323	22,540000	50,190000
1,510109	286,210103	39,147	-0,020590	22,550000	50,220000
1,522141	298,168087	39,751	-0,015831	22,550000	50,220000
1,534119	310,633980	40,352	-0,010869	22,550000	50,220000
1,546185	322,410392	40,952	-0,006182	22,540000	50,190000
1,558119	334,843161	41,554	-0,001234	22,540000	50,190000
1,570124	344,840658	42,156	0,002745	22,540000	50,190000
1,582111	358,944380	42,757	0,008358	22,540000	50,190000
1,594105	369,025302	43,359	0,012371	22,540000	50,190000
1,606107	382,887337	43,959	0,017888	22,540000	50,190000
1,618117	393,292144	44,561	0,022029	22,540000	50,190000
1,630105	407,062166	45,162	0,027509	22,530000	50,215000
1,642130	419,237300	45,764	0,032355	22,530000	50,215000
1,654116	428,977161	46,364	0,036231	22,530000	50,215000
1,666108	440,953547	46,965	0,040998	22,540000	50,225000
1,670127	447,169932	47,566	0,043472	22,540000	50,225000
1,670148	447,053382	48,167	0,043426	22,540000	50,225000
1,658141	435,276971	48,767	0,038739	22,540000	50,225000
1,646111	423,883333	49,369	0,034204	22,540000	50,225000
1,634105	411,840698	49,972	0,029411	22,540000	50,225000
1,622173	399,599315	50,572	0,024539	22,540000	50,225000
1,610118	387,258558	51,172	0,019627	22,540000	50,165000
1,598145	375,266224	51,775	0,014854	22,540000	50,165000
1,586122	360,688943	52,377	0,009053	22,540000	50,165000
1,574156	350,325848	52,978	0,004928	22,540000	50,165000
1,562135	336,181641	53,581	-0,000701	22,540000	50,165000
1,550123	325,751070	54,181	-0,004853	22,540000	50,165000
1,538110	312,628818	54,781	-0,010075	22,540000	50,165000
1,526120	299,905288	55,382	-0,015139	22,530000	50,200000
1,514115	287,796404	55,984	-0,019958	22,530000	50,200000
1,502127	275,621270	56,584	-0,024804	22,530000	50,200000
1,490183	263,738124	57,186	-0,029534	22,540000	50,240000
1,478162	251,878288	57,787	-0,034254	22,540000	50,240000
1,466130	238,423563	58,390	-0,039609	22,540000	50,240000
1,454116	226,057043	58,991	-0,044531	22,540000	50,215000
1,442141	216,117207	59,592	-0,048487	22,540000	50,215000
1,430160	203,610828	60,194	-0,053464	22,540000	50,215000
1,418117	189,407732	60,795	-0,059117	22,540000	50,215000
1,406161	177,356509	61,398	-0,063914	22,540000	50,215000
1,394095	166,054884	62,000	-0,068412	22,540000	50,215000
1,382068	153,771789	62,601	-0,073300	22,540000	50,215000
1,370154	142,684860	63,203	-0,077713	22,530000	50,225000
1,358116	130,502365	63,804	-0,082562	22,530000	50,225000
1,346154	118,759079	64,408	-0,087235	22,530000	50,225000
1,334106	103,957286	65,010	-0,093126	22,530000	50,225000
1,322115	92,297425	65,612	-0,097767	22,530000	50,225000
1,310144	82,367403	66,214	-0,101719	22,530000	50,225000
1,298127	69,825446	66,815	-0,106711	22,530000	50,225000
1,286159	58,033085	67,415	-0,111404	22,530000	50,175000
1,274131	45,043332	68,017	-0,116574	22,530000	50,175000
1,262168	33,841080	68,620	-0,121033	22,530000	50,175000
1,250181	21,932171	69,222	-0,125772	22,540000	50,225000
1,238124	9,457689	69,825	-0,130737	22,540000	50,225000
1,226160	-4,604320	70,426	-0,136334	22,540000	50,225000
1,214150	-14,426380	71,027	-0,140243	22,540000	50,225000
1,202143	-26,610101	71,628	-0,145092	22,540000	50,225000
1,190133	-38,901784	72,230	-0,149984	22,540000	50,225000
1,178151	-52,473059	72,832	-0,155386	22,540000	50,225000
1,166111	-64,406505	73,433	-0,160135	22,540000	50,225000
1,154138	-74,621153	74,034	-0,164201	22,540000	50,225000
1,142187	-87,310331	74,636	-0,169251	22,540000	50,225000
1,130171	-98,688020	75,236	-0,173779	22,540000	50,225000
1,118158	-112,983129	75,839	-0,179469	22,540000	50,225000
1,106177	-123,313099	76,441	-0,183580	22,540000	50,225000
1,094137	-135,603555	77,041	-0,188472	22,520000	50,225000
1,082178	-149,540427	77,642	-0,194019	22,520000	50,225000
1,070161	-160,061784	78,244	-0,198206	22,520000	50,225000
1,058142	-174,315179	78,844	-0,203879	22,540000	50,200000
1,046133	-184,495475	79,445	-0,207931	22,540000	50,200000
1,034152	-198,465472	80,047	-0,213491	22,540000	50,200000
1,022173	-209,892235	80,649	-0,218039	22,540000	50,200000
1,010187	-221,877208	81,251	-0,222809	22,540000	50,200000
0,998157	-233,469594	81,851	-0,227422	22,540000	50,200000
0,986185	-245,329430	82,453	-0,232143	22,540000	50,200000
0,974132	-257,562225	83,055	-0,237011	22,540000	50,200000
0,962161	-271,316298	83,659	-0,242485	22,540000	50,200000
0,950074	-281,272083	84,262	-0,246448	22,540000	50,200000
0,938152	-295,250667	84,864	-0,252011	22,540000	50,215000
0,926178	-0,224511	85,465	-0,134591	22,540000	50,215000
0,914151	-0,158262	86,069	-0,134564	22,540000	50,215000
0,902172	-0,456383	86,672	-0,134683	22,540000	50,215000
0,890139	-0,215923	87,273	-0,134587	22,540000	50,215000
0,878157	0,191387	87,875	-0,134425	22,540000	50,215000
0,866184	-0,315297	88,476	-0,134627	22,540000	50,215000
0,854181	-0,240460	89,078	-0,134597	22,540000	50,225000
0,842162	0,017176	89,681	-0,134495	22,540000	50,225000
0,830163	-0,165623	90,282	-0,134567	22,540000	50,225000
0,818163	-0,215923	90,883	-0,134587	22,550000	50,205000
0,806126	-0,149674	91,484	-0,134561	22,550000	50,205000
0,794186	0,158262	92,084	-0,134438	22,550000	50,205000
0,782170	0,008588	92,685	-0,134498	22,550000	50,205000
0,770160	-0,132498	93,289	-0,134554	22,540000	50,225000
0,758181	-0,123911	93,890	-0,134551	22,540000	50,225000
[...]
1,553969	414,907791	45,761	0,030691	22,540000	50,095000
1,601929	462,734817	48,166	0,049727	22,530000	50,110000
1,650001	511,759236	50,574	0,069238	22,530000	50,125000
1,697959	559,046453	52,981	0,088059	22,530000	50,085000
1,746031	608,768942	55,387	0,107848	22,540000	50,095000
1,793915	655,018255	57,798	0,126255	22,540000	50,095000
1,841982	704,342023	60,201	0,145886	22,530000	50,085000
1,889929	751,404729	62,609	0,164617	22,550000	50,060000
1,937918	801,060969	65,015	0,184380	22,530000	50,045000
1,985942	848,647535	67,419	0,203320	22,540000	50,110000
2,033937	896,150675	69,823	0,222226	22,540000	50,110000
2,081957	943,587567	72,230	0,241106	22,530000	50,085000
2,129964	992,039053	74,631	0,260390	22,530000	50,095000
2,177977	1041,918577	77,031	0,280242	22,540000	50,085000
2,225871	1088,458651	79,440	0,298765	22,540000	50,110000
2,273891	1136,386277	81,851	0,317840	22,540000	50,095000
2,321917	1186,340639	84,285	0,337722	22,540000	50,085000
2,369920	1232,746987	86,690	0,356191	22,540000	50,110000
2,417914	1281,339559	89,092	0,375531	22,540000	50,095000
2,465909	1330,687863	91,500	0,395172	22,540000	50,095000
2,513931	1378,855950	93,907	0,414343	22,540000	50,110000
2,561940	1425,362898	96,310	0,432853	22,550000	50,090000
2,609894	1473,198512	98,718	0,451891	22,540000	50,135000
2,657888	1521,831570	101,122	0,471247	22,540000	50,085000
2,705877	1569,468436	103,530	0,490207	22,540000	50,095000
2,753875	1619,398261	105,936	0,510079	22,520000	50,125000
2,801946	1666,511267	108,339	0,528830	22,530000	50,055000
2,849824	1716,549054	110,744	0,548745	22,530000	50,085000
2,897885	1762,906329	113,151	0,567195	22,540000	50,085000
2,945843	1811,190965	115,559	0,586412	22,540000	50,070000
2,993858	1859,592150	117,965	0,605676	22,540000	50,045000
3,041836	1907,727112	120,374	0,624833	22,540000	50,085000
3,089908	1957,905985	122,780	0,644805	22,540000	50,085000
3,137864	2004,861956	125,184	0,663493	22,530000	50,110000
3,185860	2052,963794	127,591	0,682638	22,530000	50,110000
3,233865	2101,464353	130,003	0,701941	22,540000	50,070000
3,281791	2149,682740	132,410	0,721132	22,540000	50,110000
3,329824	2197,683977	134,818	0,740236	22,540000	50,110000
3,377781	2245,569890	137,227	0,759295	22,530000	50,085000
3,425830	2295,924201	139,634	0,779336	22,530000	50,085000
3,473804	2342,247124	142,041	0,797772	22,540000	50,095000
3,521820	2392,310674	144,448	0,817698	22,540000	50,110000
3,569770	2438,725610	146,857	0,836171	22,540000	50,085000
3,617779	2487,907065	149,264	0,855745	22,530000	50,085000
3,665802	2535,129260	151,669	0,874540	22,530000	50,085000
3,713764	2585,706855	154,070	0,894669	22,540000	50,110000
3,761831	2632,296001	156,477	0,913212	22,530000	50,125000
3,809775	2681,129034	158,883	0,932647	22,530000	50,125000
3,857768	2728,906986	161,292	0,951663	22,530000	50,095000
3,905747	2777,332708	163,698	0,970937	22,540000	50,085000
3,953787	2825,103300	166,101	0,989949	22,550000	50,100000
4,001682	2874,043067	168,508	1,009427	22,550000	50,130000
4,049760	2922,470016	170,913	1,028701	22,550000	50,130000
4,097709	2969,997694	173,318	1,047617	22,540000	50,070000
4,145767	3018,623390	175,721	1,066970	22,540000	50,085000
4,193720	3066,608678	178,132	1,086068	22,540000	50,085000
4,241673	3114,844241	180,538	1,105266	22,530000	50,125000
4,289718	3163,701810	182,946	1,124711	22,540000	50,110000
4,337681	3211,180414	185,357	1,143608	22,530000	50,095000
4,385704	3259,299427	187,763	1,162759	22,540000	50,095000
4,433681	3307,716561	190,169	1,182029	22,530000	50,055000
4,481608	3356,300546	192,577	1,201366	22,540000	50,095000
4,529674	3405,773987	194,983	1,221056	22,540000	50,110000
4,577652	3451,839274	197,391	1,239390	22,540000	50,085000
4,625636	3501,794863	199,795	1,259272	22,540000	50,085000
4,633577	3511,367875	202,201	1,263083	22,550000	50,115000
4,585659	3461,006203	204,611	1,243039	22,550000	50,115000
4,537595	3412,646730	207,018	1,223792	22,540000	50,095000
4,489671	3361,867933	209,424	1,203582	22,530000	50,085000
4,441659	3313,467975	211,830	1,184318	22,530000	50,085000
4,393700	3263,686597	214,238	1,164505	22,530000	50,095000
4,345627	3214,496555	216,648	1,144928	22,530000	50,095000
4,297617	3165,381350	219,058	1,125380	22,540000	50,070000
4,249689	3118,433967	221,466	1,106695	22,540000	50,070000
4,201771	3069,908871	223,871	1,087382	22,540000	50,045000
4,153711	3020,634177	226,300	1,067771	22,530000	50,095000
4,105693	2970,371879	228,705	1,047766	22,540000	50,095000
4,057738	2923,384010	231,110	1,029065	22,540000	50,095000
4,009755	2874,126492	233,514	1,009460	22,530000	50,055000
3,961722	2825,094712	235,919	0,989946	22,540000	50,085000
3,913755	2777,175673	238,319	0,970874	22,530000	50,095000
3,865757	2726,596851	240,723	0,950744	22,540000	50,085000
3,817771	2679,434772	243,129	0,931973	22,540000	50,085000
3,769749	2631,298583	245,532	0,912815	22,540000	50,110000
3,721762	2581,784656	247,939	0,893108	22,530000	50,095000
3,673761	2532,137003	250,348	0,873349	22,540000	50,095000
3,625800	2484,425300	252,754	0,854359	22,540000	50,085000
3,577753	2437,346645	255,164	0,835622	22,540000	50,085000
3,529737	2386,892961	257,571	0,815542	22,530000	50,055000
3,481796	2339,970114	259,977	0,796866	22,530000	50,055000
3,433837	2289,724992	262,384	0,776869	22,540000	50,085000
3,385804	2242,511385	264,789	0,758078	22,540000	50,085000
3,337888	2195,041369	267,197	0,739185	22,540000	50,085000
3,289903	2144,737359	269,604	0,719164	22,540000	50,085000
3,241808	2097,408429	272,010	0,700327	22,520000	50,110000
3,193868	2049,273467	274,417	0,681169	22,540000	50,095000
3,145821	2000,631821	276,821	0,661810	22,540000	50,095000
3,097881	1950,268923	279,229	0,641765	22,540000	50,095000
3,049920	1904,078498	281,636	0,623381	22,530000	50,085000
3,001903	1854,754731	284,047	0,603750	22,540000	50,070000
2,953901	1806,562107	286,459	0,584570	22,530000	50,070000
2,905982	1756,581982	288,862	0,564678	22,530000	50,085000
2,857938	1708,396720	291,265	0,545500	22,540000	50,095000
2,809916	1661,682436	293,672	0,526908	22,540000	50,095000
2,761910	1613,639486	296,081	0,507787	22,540000	50,110000
2,713916	1564,606480	298,484	0,488271	22,540000	50,085000
2,665914	1516,520591	300,888	0,469133	22,540000	50,085000
2,617901	1469,208837	303,294	0,450303	22,540000	50,095000
2,569957	1419,237300	305,700	0,430415	22,540000	50,095000
2,521956	1372,989214	308,108	0,412008	22,540000	50,070000
2,473857	1324,737702	310,516	0,392804	22,540000	50,070000
2,425943	1276,202791	312,924	0,373487	22,530000	50,045000
2,377975	1228,318104	315,329	0,354429	22,530000	50,045000
2,329924	1179,591807	317,732	0,335036	22,540000	50,070000
2,281912	1131,681356	320,136	0,315967	22,540000	50,055000
2,233909	1084,635826	322,543	0,297243	22,540000	50,085000
2,185902	1036,034666	324,949	0,277900	22,540000	50,055000
2,137928	988,439512	327,357	0,258957	22,520000	50,085000
2,089965	938,750147	329,766	0,239181	22,540000	50,070000
2,041956	891,297307	332,173	0,220294	22,530000	50,070000
1,993893	842,555060	334,578	0,200895	22,530000	50,085000
1,945901	796,124176	336,986	0,182416	22,530000	50,110000
1,897941	748,828370	339,394	0,163592	22,530000	50,110000
1,849968	700,526559	341,801	0,144368	22,540000	50,110000
1,801956	653,081079	344,206	0,125484	22,540000	50,045000
1,753955	603,026117	346,614	0,105563	22,540000	50,045000
1,705951	557,359552	349,019	0,087387	22,530000	50,070000
1,657959	507,878749	351,427	0,067694	22,530000	50,070000
1,609964	461,704273	353,836	0,049316	22,530000	50,045000
1,561968	412,555944	356,244	0,029755	22,530000	50,070000
1,514000	366,498017	358,650	0,011424	22,540000	50,070000
1,465948	319,153139	361,057	-0,007419	22,540000	50,110000
1,418024	269,696873	363,461	-0,027103	22,540000	50,085000
1,369981	223,456148	365,867	-0,045506	22,530000	50,085000
1,321975	176,085506	368,274	-0,064360	22,520000	50,070000
1,273952	127,452448	370,681	-0,083716	22,540000	50,095000
1,225948	79,956668	373,089	-0,102619	22,540000	50,095000
1,178005	29,220811	375,490	-0,122812	22,530000	50,055000
1,129984	-17,942496	377,896	-0,141583	22,530000	50,055000
1,081982	-66,434467	380,301	-0,160883	22,530000	50,070000
1,034019	-117,154375	382,707	-0,181069	22,540000	50,070000
0,985995	-165,264801	385,113	-0,200217	22,540000	50,070000
0,938026	-214,313756	387,526	-0,219739	22,540000	50,070000
0,890009	-260,936028	389,931	-0,238294	22,530000	50,095000
0,841990	-311,415476	392,338	-0,258385	22,520000	50,085000
0,793992	-359,292802	394,746	-0,277440	22,530000	50,095000
0,745969	0,224511	397,150	-0,134353	22,540000	50,095000
0,698009	0,266224	399,555	-0,134336	22,540000	50,110000
0,650032	0,257636	401,964	-0,134339	22,540000	50,110000
0,644004	0,149674	402,267	-0,134382	22,520000	50,110000