Folder: Nanoindentation_Analysis/Nanoindentation Datenauswertung/data/Saphir

File: AR-SA-450-1-450-3um-diff_LF-4x4-2
Quasi static measurement routine
Tip parameters (shape,radius, material...)
06.09.2022

Piezo position[nm]	MEMS displ.[nm]	Time[ms]	Cap [pf]	Temp [°C]	Rh [%]
eoh

X-Pos [um]	Y-Pos [um]
0,000637	0,001315

POC
2,131993
1,143960	0,213259	1,971	-0,078526	22,450000	48,810000
1,156987	0,213259	3,926	-0,078526	22,450000	48,770000
1,170009	0,142173	5,879	-0,078556	22,470000	48,810000
1,182941	0,323967	7,833	-0,078480	22,450000	48,810000
1,195981	0,323967	9,789	-0,078480	22,450000	48,810000
1,208914	-0,039622	11,741	-0,078632	22,450000	48,825000
1,221967	0,299495	13,692	-0,078490	22,460000	48,795000
1,234955	0,268030	15,645	-0,078503	22,460000	48,795000
1,247987	0,071086	17,596	-0,078586	22,460000	48,785000
1,260964	0,252881	19,548	-0,078510	22,460000	48,810000
1,273954	0,118866	21,504	-0,078566	22,460000	48,810000
1,286938	0,268030	23,455	-0,078503	22,460000	48,795000
1,299913	0,118866	25,409	-0,078566	22,460000	48,795000
1,312953	0,205101	27,362	-0,078530	22,450000	48,795000
1,325898	0,252881	29,314	-0,078510	22,450000	48,795000
1,338937	0,261038	31,270	-0,078506	22,450000	48,810000
1,351923	0,299495	33,222	-0,078490	22,450000	48,810000
1,365007	0,150330	35,179	-0,078553	22,470000	48,810000
1,377972	0,449825	37,135	-0,078427	22,470000	48,810000
1,390950	0,086236	39,088	-0,078580	22,460000	48,810000
1,403962	0,370581	41,040	-0,078460	22,460000	48,810000
1,416979	0,544218	42,990	-0,078388	22,450000	48,785000
1,429910	0,261038	44,943	-0,078506	22,460000	48,785000
1,442968	-0,173637	46,894	-0,078688	22,460000	48,785000
1,455947	0,347274	48,845	-0,078470	22,450000	48,795000
1,468929	0,330959	50,798	-0,078477	22,470000	48,785000
1,481944	0,205101	52,750	-0,078530	22,460000	48,785000
1,494954	0,284345	54,706	-0,078497	22,460000	48,785000
1,507975	0,229574	56,659	-0,078520	22,460000	48,795000
1,520958	0,181794	58,614	-0,078540	22,460000	48,795000
1,533978	-0,087401	60,565	-0,078652	22,460000	48,795000
1,546961	0,150330	62,522	-0,078553	22,440000	48,820000
1,559906	0,086236	64,472	-0,078580	22,460000	48,795000
1,572959	0,047779	66,424	-0,078596	22,460000	48,795000
1,585962	0,062929	68,379	-0,078589	22,450000	48,810000
1,598959	0,276188	70,332	-0,078500	22,460000	48,770000
1,611976	0,039622	72,284	-0,078599	22,460000	48,785000
1,624948	0,142173	74,238	-0,078556	22,460000	48,785000
1,637942	0,150330	76,191	-0,078553	22,460000	48,785000
1,650904	0,165480	78,142	-0,078546	22,460000	48,825000
1,663964	0,125858	80,095	-0,078563	22,460000	48,825000
1,676970	0,229574	82,048	-0,078520	22,460000	48,810000
1,689939	0,142173	83,999	-0,078556	22,460000	48,810000
1,702955	0,110708	85,951	-0,078569	22,460000	48,785000
1,715946	-0,181794	87,904	-0,078692	22,460000	48,785000
1,728937	0,221416	89,857	-0,078523	22,450000	48,795000
1,741933	0,102551	91,810	-0,078573	22,470000	48,850000
1,754948	0,150330	93,765	-0,078553	22,470000	48,850000
1,767947	0,094393	95,716	-0,078576	22,460000	48,785000
1,780928	0,102551	97,668	-0,078573	22,460000	48,785000
1,793935	-0,134015	99,619	-0,078672	22,460000	48,785000
1,806949	0,023307	101,570	-0,078606	22,460000	48,785000
1,819951	0,055937	103,523	-0,078592	22,460000	48,795000
1,832954	0,062929	105,480	-0,078589	22,450000	48,810000
1,845946	0,134015	107,433	-0,078560	22,450000	48,810000
1,858945	0,023307	109,386	-0,078606	22,460000	48,795000
1,871943	0,071086	111,339	-0,078586	22,460000	48,795000
1,884967	-0,150330	113,291	-0,078679	22,460000	48,825000
1,897922	0,000000	115,246	-0,078616	22,460000	48,810000
1,910968	-0,134015	117,199	-0,078672	22,460000	48,810000
1,923923	-0,039622	119,152	-0,078632	22,460000	48,810000
1,936939	-0,165480	121,108	-0,078685	22,460000	48,810000
1,949964	-0,196944	123,064	-0,078698	22,470000	48,825000
1,962962	-0,339117	125,016	-0,078758	22,460000	48,825000
1,975944	-0,395053	126,970	-0,078781	22,460000	48,825000
1,988941	-0,276188	128,922	-0,078731	22,460000	48,825000
2,001929	-0,481289	130,876	-0,078817	22,440000	48,790000
2,014925	-0,631619	132,831	-0,078880	22,460000	48,835000
2,027918	-0,552375	134,786	-0,078847	22,460000	48,825000
2,040922	-0,520911	136,741	-0,078834	22,470000	48,785000
2,053915	-0,868185	138,696	-0,078979	22,470000	48,785000
2,066963	-1,041822	140,648	-0,079052	22,450000	48,785000
2,079899	-44,088650	142,601	-0,097089	22,450000	48,825000
2,092957	-30,289752	144,552	-0,091307	22,460000	48,810000
2,105964	-17,588613	146,504	-0,085985	22,460000	48,810000
2,118957	-4,555349	148,458	-0,080524	22,470000	48,835000
2,131925	8,280970	150,412	-0,075146	22,450000	48,795000
2,144925	20,256097	152,363	-0,070128	22,450000	48,795000
2,157879	33,778807	154,317	-0,064462	22,450000	48,785000
2,170940	47,728036	156,268	-0,058618	22,460000	48,795000
2,183921	60,389553	158,221	-0,053312	22,460000	48,795000
2,196930	73,217715	160,178	-0,047938	22,460000	48,785000
2,209931	85,998098	162,132	-0,042583	22,460000	48,810000
2,222989	99,355329	164,089	-0,036986	22,470000	48,810000
2,235958	112,214956	166,040	-0,031598	22,460000	48,810000
2,248891	125,137511	167,992	-0,026183	22,460000	48,795000
2,256913	134,175958	169,947	-0,022396	22,460000	48,795000
2,245897	123,337047	171,900	-0,026937	22,450000	48,795000
2,232883	109,562621	173,852	-0,032709	22,460000	48,825000
2,219921	97,136504	175,806	-0,037916	22,470000	48,825000
2,206949	82,967025	177,758	-0,043853	22,470000	48,825000
2,193951	69,665731	179,710	-0,049426	22,460000	48,810000
2,180923	56,371429	181,664	-0,054996	22,460000	48,810000
2,167944	43,544432	183,618	-0,060371	22,470000	48,825000
2,154848	30,218666	185,572	-0,065954	22,470000	48,825000
2,141907	17,800707	187,524	-0,071157	22,460000	48,795000
2,128928	3,821180	189,480	-0,077015	22,450000	48,825000
2,115929	-8,674858	191,434	-0,082250	22,450000	48,825000
2,102952	-21,440092	193,387	-0,087599	22,460000	48,810000
2,089931	-35,799523	195,339	-0,093616	22,460000	48,810000
2,076895	-48,138238	197,291	-0,098786	22,460000	48,785000
2,063945	-61,589862	199,246	-0,104422	22,460000	48,785000
2,050917	-74,614969	201,200	-0,109879	22,460000	48,795000
2,037933	-88,279852	203,153	-0,115605	22,460000	48,795000
2,024889	-101,936577	205,107	-0,121327	22,460000	48,795000
2,011962	-114,503701	207,060	-0,126593	22,460000	48,795000
1,998924	-128,231513	209,013	-0,132345	22,460000	48,785000
1,985958	-141,493185	210,964	-0,137901	22,460000	48,785000
1,972945	-153,894830	212,915	-0,143098	22,460000	48,795000
1,959939	-166,573827	214,869	-0,148410	22,460000	48,825000
1,946977	-179,724791	216,821	-0,153920	22,460000	48,825000
1,933931	-192,915377	218,776	-0,159447	22,470000	48,755000
1,920933	-206,793519	220,729	-0,165262	22,470000	48,755000
1,907931	-218,847889	222,679	-0,170313	22,460000	48,795000
1,894943	-231,896303	224,632	-0,175780	22,460000	48,785000
1,881929	-245,498257	226,586	-0,181479	22,460000	48,795000
1,868907	-259,644429	228,540	-0,187407	22,450000	48,825000
1,855945	-272,748779	230,493	-0,192897	22,450000	48,825000
1,842935	-285,031558	232,446	-0,198044	22,470000	48,810000
1,829942	-298,459875	234,397	-0,203670	22,450000	48,795000
1,816973	-310,995534	236,350	-0,208923	22,450000	48,795000
1,803912	-325,141706	238,302	-0,214850	22,460000	48,795000
1,790925	-337,179762	240,254	-0,219894	22,460000	48,795000
1,777965	-351,128990	242,208	-0,225739	22,460000	48,795000
1,764937	-363,041188	244,161	-0,230730	22,460000	48,825000
[...]
3,150477	1167,314989	578,626	0,410767	22,430000	48,675000
3,115468	1132,699461	583,885	0,396263	22,430000	48,660000
3,080451	1096,426807	589,147	0,381065	22,430000	48,675000
3,045473	1060,950086	594,403	0,366200	22,430000	48,700000
3,010424	1027,321608	599,663	0,352110	22,440000	48,660000
2,975420	991,719030	604,920	0,337192	22,440000	48,660000
2,940467	955,737713	610,178	0,322116	22,430000	48,635000
2,905510	921,375065	615,432	0,307718	22,440000	48,635000
2,870445	885,354126	620,694	0,292625	22,430000	48,650000
2,835512	850,943700	625,955	0,278208	22,440000	48,635000
2,800490	815,341121	631,220	0,263290	22,430000	48,650000
2,765413	779,597535	636,484	0,248313	22,430000	48,635000
2,730537	744,792055	641,744	0,233730	22,420000	48,610000
2,695499	709,417885	647,000	0,218908	22,440000	48,660000
2,660466	674,613570	652,255	0,204325	22,430000	48,620000
2,625490	639,303494	657,512	0,189530	22,430000	48,650000
2,590513	603,132225	662,769	0,174375	22,420000	48,635000
2,555467	569,163466	668,032	0,160142	22,430000	48,650000
2,520494	532,472451	673,286	0,144768	22,420000	48,650000
2,485507	498,330055	678,543	0,130462	22,440000	48,620000
2,450468	462,538690	683,804	0,115466	22,430000	48,660000
2,415474	427,946469	689,064	0,100972	22,430000	48,635000
2,380460	392,163261	694,322	0,085979	22,430000	48,650000
2,345571	357,823920	699,572	0,071590	22,430000	48,660000
2,310523	323,294628	704,828	0,057123	22,430000	48,660000
2,275478	286,903108	710,091	0,041875	22,430000	48,660000
2,240492	252,231643	715,348	0,027347	22,430000	48,660000
2,205539	216,676844	720,602	0,012450	22,430000	48,650000
2,170539	181,982072	725,865	-0,002087	22,420000	48,660000
2,135498	147,004121	731,128	-0,016743	22,430000	48,660000
2,100488	112,474828	736,389	-0,031211	22,420000	48,650000
2,065521	76,801163	741,651	-0,046158	22,430000	48,660000
2,030556	42,486295	746,909	-0,060536	22,420000	48,660000
1,995526	7,168062	752,166	-0,075334	22,430000	48,635000
1,960538	-28,221258	757,426	-0,090163	22,430000	48,660000
1,925573	-64,328433	762,686	-0,105292	22,430000	48,660000
1,890516	-98,976590	767,943	-0,119809	22,430000	48,650000
1,855551	-133,086357	773,204	-0,134101	22,430000	48,660000
1,820584	-168,949974	778,467	-0,149128	22,440000	48,635000
1,785526	-204,007169	783,725	-0,163817	22,430000	48,650000
1,750645	-238,733405	788,982	-0,178367	22,430000	48,675000
1,715563	-273,688050	794,233	-0,193013	22,420000	48,635000
1,680494	-308,533152	799,493	-0,207613	22,420000	48,675000
1,645555	-344,150880	804,750	-0,222537	22,430000	48,635000
1,610542	-379,232548	810,006	-0,237236	22,430000	48,635000
1,575583	-414,818812	815,264	-0,252147	22,430000	48,675000
1,540550	-448,557997	820,525	-0,266284	22,430000	48,660000
1,505562	-483,418248	825,784	-0,280890	22,440000	48,650000
1,470555	-518,113020	831,043	-0,295427	22,430000	48,635000
1,435570	-552,776328	836,300	-0,309951	22,420000	48,635000
1,400538	-587,904609	841,556	-0,324670	22,430000	48,660000
1,365517	-623,965170	846,822	-0,339779	22,430000	48,650000
1,330549	-658,659942	852,078	-0,354316	22,420000	48,675000
1,295589	-693,156604	857,340	-0,368771	22,420000	48,675000
1,260537	-728,529609	862,599	-0,383592	22,430000	48,675000
1,225595	-762,719785	867,854	-0,397917	22,430000	48,635000
1,190526	-797,373769	873,114	-0,412438	22,430000	48,620000
1,155572	-831,595409	878,376	-0,426776	22,430000	48,620000
1,120616	-866,478968	883,630	-0,441393	22,430000	48,635000
1,085569	-902,240034	888,890	-0,456376	22,420000	48,660000
1,050575	-936,665610	894,145	-0,470801	22,430000	48,620000
1,015582	-971,130808	899,401	-0,485242	22,430000	48,660000
0,992560	-0,631619	902,856	-0,078603	22,440000	48,675000

File: PM-Sa-150ms, 3um, 7nms ,3cycles-2
Quasi static measurement routine
Tip parameters (shape,radius, material...)
08.09.2022

Piezo position[nm]	MEMS displ.[nm]	Time[ms]	Cap [pf]	Temp [°C]	Rh [%]
eoh
1,288085	-0,085623	0,170	-0,076638	22,490000	54,385000
1,335136	-0,054382	7,234	-0,076625	22,480000	54,415000
1,382169	-0,101822	14,294	-0,076645	22,490000	54,360000
1,429118	-0,281167	21,360	-0,076720	22,480000	54,385000
1,476116	-0,054382	28,425	-0,076625	22,480000	54,360000
1,523143	-0,258025	35,490	-0,076710	22,480000	54,400000
1,570153	-0,172403	42,557	-0,076674	22,490000	54,415000
1,617114	-0,046283	49,622	-0,076621	22,480000	54,360000
1,664102	-0,312407	56,683	-0,076733	22,480000	54,400000
1,711111	-0,407287	63,748	-0,076773	22,480000	54,415000
1,758125	-0,367947	70,812	-0,076757	22,500000	54,420000
1,805136	-0,054382	77,876	-0,076625	22,490000	54,430000
1,852151	-0,226785	84,938	-0,076697	22,500000	54,420000
1,899051	-0,305465	92,001	-0,076730	22,490000	54,430000
1,946084	-0,446627	99,066	-0,076790	22,480000	54,415000
1,993077	-0,673412	106,127	-0,076886	22,480000	54,415000
2,040066	-0,642171	113,190	-0,076873	22,490000	54,385000
2,087104	-0,845814	120,253	-0,076958	22,490000	54,430000
2,134097	-1,221860	127,316	-0,077117	22,480000	54,385000
2,181095	-1,755267	134,376	-0,077342	22,480000	54,430000
2,228081	-3,298791	141,436	-0,077994	22,500000	54,405000
2,275105	-9,530741	148,499	-0,080624	22,500000	54,390000
2,322025	38,367104	155,566	-0,060411	22,480000	54,400000
2,369133	85,402936	162,637	-0,040562	22,480000	54,375000
2,416020	131,882220	169,704	-0,020947	22,490000	54,385000
2,463109	179,545181	176,772	-0,000833	22,500000	54,420000
2,510041	226,784656	183,841	0,019102	22,490000	54,415000
2,557071	272,801114	190,906	0,038521	22,490000	54,440000
2,604070	319,860088	197,969	0,058379	22,490000	54,430000
2,651083	367,577431	205,031	0,078516	22,490000	54,415000
2,698091	413,563805	212,100	0,097922	22,490000	54,385000
2,745085	460,700302	219,163	0,117814	22,490000	54,400000
2,792071	507,478108	226,219	0,137554	22,480000	54,385000
2,839116	554,756924	233,287	0,157506	22,490000	54,385000
2,886063	601,815897	240,349	0,177365	22,490000	54,400000
2,933057	648,702468	247,411	0,197151	22,480000	54,375000
2,937029	654,173069	254,473	0,199459	22,490000	54,415000
2,890036	606,863013	261,537	0,179495	22,500000	54,420000
2,843045	559,334271	268,596	0,159438	22,490000	54,385000
2,796048	511,889996	275,659	0,139416	22,490000	54,430000
2,749097	463,584864	282,721	0,119031	22,490000	54,415000
2,702092	415,875620	289,787	0,098898	22,490000	54,415000
2,655075	369,012191	296,853	0,079122	22,480000	54,415000
2,608072	321,106246	303,913	0,058905	22,490000	54,400000
2,561069	273,436343	310,973	0,038789	22,480000	54,415000
2,561075	273,224600	317,918	0,038699	22,490000	54,415000
2,608070	320,150511	324,983	0,058502	22,480000	54,385000
2,655104	367,734792	332,046	0,078583	22,480000	54,430000
2,702069	414,261515	339,103	0,098217	22,480000	54,385000
2,749050	461,883979	346,180	0,118313	22,500000	54,390000
2,796074	510,252749	353,241	0,138725	22,480000	54,400000
2,843077	556,433510	360,303	0,158213	22,490000	54,360000
2,890044	603,563065	367,363	0,178102	22,480000	54,385000
2,937025	650,974943	374,426	0,198110	22,480000	54,385000
2,984033	698,379878	381,486	0,218115	22,490000	54,415000
3,031013	746,065980	388,551	0,238238	22,490000	54,360000
3,078085	792,796347	395,612	0,257958	22,490000	54,375000
3,125025	840,293848	402,673	0,278002	22,490000	54,415000
3,172028	887,063555	409,735	0,297739	22,480000	54,430000
3,218991	933,221175	416,797	0,317218	22,490000	54,400000
3,266012	980,107746	423,860	0,337004	22,480000	54,415000
3,313026	1027,229201	430,921	0,356889	22,500000	54,390000
3,359989	1075,488050	437,984	0,377254	22,480000	54,400000
3,406965	1121,246483	445,046	0,396564	22,490000	54,385000
3,453933	1168,571581	452,106	0,416536	22,490000	54,415000
3,500975	1215,521790	459,166	0,436349	22,480000	54,400000
3,547917	1263,419635	466,228	0,456562	22,500000	54,390000
3,594920	1310,439268	473,291	0,476404	22,490000	54,430000
3,608861	1325,228867	480,356	0,482645	22,490000	54,415000
3,561899	1277,519624	487,414	0,462512	22,500000	54,420000
3,514956	1230,288248	494,473	0,442580	22,490000	54,400000
3,468013	1182,091880	501,534	0,422241	22,490000	54,400000
3,420986	1135,676235	508,603	0,402654	22,500000	54,420000
3,373982	1087,496066	515,663	0,382322	22,490000	54,415000
3,326990	1041,008683	522,724	0,362704	22,500000	54,405000
3,280015	992,437426	529,784	0,342207	22,500000	54,435000
3,233007	945,142412	536,845	0,322249	22,490000	54,400000
3,186010	898,129721	543,906	0,302409	22,480000	54,415000
3,139052	850,115012	550,969	0,282147	22,490000	54,400000
3,092027	803,878712	558,040	0,262635	22,480000	54,400000
3,045063	755,416219	565,106	0,242184	22,490000	54,415000
3,077068	786,956642	572,049	0,255494	22,490000	54,415000
3,124057	835,238633	579,113	0,275869	22,480000	54,385000
3,171005	881,591797	586,176	0,295430	22,490000	54,415000
3,218029	930,407194	593,241	0,316030	22,490000	54,415000
3,265011	976,792756	600,304	0,335605	22,500000	54,435000
3,311977	1025,066647	607,365	0,355977	22,490000	54,415000
3,359019	1071,953218	614,428	0,375763	22,490000	54,430000
3,405918	1118,503082	621,486	0,395407	22,490000	54,375000
3,452974	1166,071164	628,549	0,415480	22,490000	54,385000
3,500008	1213,875287	635,610	0,435654	22,490000	54,430000
3,546897	1260,174069	642,673	0,455192	22,500000	54,405000
3,593920	1308,401677	649,733	0,475544	22,500000	54,435000
3,640937	1355,751074	656,797	0,495525	22,490000	54,385000
3,687928	1402,386561	663,862	0,515206	22,480000	54,415000
3,734946	1448,967667	670,930	0,534863	22,490000	54,430000
3,781916	1496,755591	677,994	0,555029	22,480000	54,415000
3,828896	1543,164294	685,054	0,574614	22,480000	54,400000
3,875950	1590,866595	692,118	0,594744	22,480000	54,415000
3,922901	1637,753166	699,181	0,614530	22,480000	54,415000
3,969881	1684,521716	706,243	0,634267	22,470000	54,385000
4,016851	1732,419561	713,303	0,654479	22,500000	54,405000
4,063909	1778,875703	720,367	0,674084	22,480000	54,415000
4,110928	1826,098980	727,430	0,694012	22,490000	54,415000
4,157859	1872,382720	734,496	0,713544	22,480000	54,440000
4,204868	1919,708975	741,553	0,733516	22,500000	54,420000
4,251837	1966,062139	748,614	0,753077	22,490000	54,400000
4,285884	2002,101229	755,676	0,768285	22,500000	54,420000
4,238843	1954,720592	762,737	0,748291	22,490000	54,385000
4,191859	1907,308714	769,797	0,728283	22,490000	54,415000
4,144824	1859,778816	776,858	0,708225	22,500000	54,405000
4,097847	1812,845962	783,919	0,688419	22,480000	54,415000
4,050903	1764,336030	790,974	0,667948	22,480000	54,440000
4,003865	1718,585697	798,035	0,648642	22,490000	54,415000
3,956856	1669,833938	805,100	0,628068	22,480000	54,385000
3,909906	1623,362754	812,159	0,608458	22,480000	54,375000
3,862855	1575,479950	819,218	0,588251	22,490000	54,415000
3,815953	1527,652686	826,278	0,568068	22,490000	54,385000
3,768942	1480,429410	833,343	0,548140	22,480000	54,430000
3,721959	1433,385478	840,403	0,528287	22,480000	54,415000
3,674904	1386,741891	847,470	0,508604	22,480000	54,415000
3,627880	1338,334938	854,531	0,488176	22,490000	54,440000
3,580949	1292,286082	861,589	0,468743	22,500000	54,445000
3,533906	1244,082772	868,646	0,448401	22,490000	54,430000
3,486948	1196,639653	875,707	0,428380	22,490000	54,415000
3,439950	1150,419552	882,768	0,408875	22,510000	54,420000
3,393000	1103,548023	889,831	0,389096	22,490000	54,385000
3,346016	1055,187352	896,893	0,368688	22,490000	54,400000
3,299014	1008,540294	903,959	0,349002	22,480000	54,400000
3,252038	961,617854	911,028	0,329201	22,480000	54,430000
3,205059	913,414544	918,089	0,308859	22,480000	54,415000
3,158004	866,519874	925,147	0,289070	22,490000	54,415000
3,111042	820,071831	932,206	0,269469	22,500000	54,420000
3,064019	772,260765	939,270	0,249292	22,500000	54,405000
3,016990	725,679660	946,336	0,229635	22,490000	54,400000
2,970048	678,862513	953,403	0,209878	22,480000	54,430000
2,923037	630,424319	960,467	0,189438	22,490000	54,415000
2,876081	583,615271	967,533	0,169684	22,490000	54,385000
2,829081	536,376953	974,598	0,149750	22,500000	54,405000
2,782024	488,956976	981,669	0,129738	22,490000	54,430000
2,735104	442,022965	988,736	0,109932	22,490000	54,430000
2,688090	395,323839	995,805	0,090225	22,480000	54,415000
2,641076	348,782074	1002,867	0,070584	22,490000	54,415000
2,594125	301,676818	1009,929	0,050706	22,480000	54,415000
2,547057	254,883970	1016,992	0,030959	22,490000	54,400000
2,500093	207,150428	1024,056	0,010816	22,480000	54,415000
2,453084	160,546181	1031,117	-0,008851	22,490000	54,400000
2,406097	113,306705	1038,183	-0,028786	22,490000	54,400000
2,359108	65,768707	1045,247	-0,048847	22,490000	54,430000
2,312073	20,034573	1052,316	-0,068147	22,490000	54,400000
2,265145	-27,275483	1059,383	-0,088112	22,490000	54,440000
2,218083	-73,480543	1066,451	-0,107610	22,480000	54,415000
2,171095	-120,673736	1073,513	-0,127526	22,490000	54,415000
2,124074	-167,654028	1080,571	-0,147352	22,490000	54,375000
2,077159	-214,077773	1087,635	-0,166942	22,500000	54,435000
2,030137	-261,936278	1094,697	-0,187139	22,500000	54,420000
1,983103	-307,953893	1101,758	-0,206558	22,480000	54,400000
1,936079	-354,784925	1108,820	-0,226321	22,490000	54,385000
1,889041	-401,868196	1115,889	-0,246190	22,500000	54,445000
1,842127	-449,514959	1122,953	-0,266297	22,490000	54,415000
1,795149	-495,641338	1130,017	-0,285762	22,500000	54,435000
1,748144	-542,230543	1137,080	-0,305423	22,500000	54,405000
1,701190	-589,227035	1144,146	-0,325255	22,490000	54,415000
1,654080	-635,784999	1151,216	-0,344903	22,490000	54,400000
1,607142	-682,373047	1158,279	-0,364563	22,490000	54,385000
1,560108	-730,137830	1165,341	-0,384720	22,490000	54,415000
1,513116	-776,045524	1172,412	-0,404093	22,490000	54,400000
1,466228	-822,547949	1179,481	-0,423717	22,480000	54,430000
1,419143	-869,630063	1186,543	-0,443585	22,490000	54,415000
1,372157	-915,059890	1193,608	-0,462757	22,490000	54,375000
1,325142	-961,084447	1200,676	-0,482179	22,490000	54,375000
1,288144	-0,179345	1206,237	-0,076677	22,480000	54,415000