Folder: Nanoindentation_Analysis/Nanoindentation Datenauswertung/data/Test Measurement (part 3)

File: partial unload on sapphire-3,50ms-2
Quasi static measurement routine
Tip parameters (shape,radius, material...)
28.06.2022

Piezo position[nm]	MEMS displ.[nm]	Time[ms]	Cap [pf]
eoh
4,299881	0,119851	0,060	-0,089227
4,312692	-9,141957	0,680	-0,093302
4,325590	-8,480558	1,335	-0,093011
4,338623	-8,961071	1,989	-0,093222
4,351590	-8,901145	2,643	-0,093196
4,364620	-9,622470	3,296	-0,093513
4,377622	-9,080922	3,949	-0,093275
4,390593	-8,961071	4,606	-0,093222
4,403622	3,187145	5,259	-0,087877
4,416578	15,996760	5,909	-0,082241
4,429600	28,625488	6,560	-0,076684
4,442626	41,495028	7,217	-0,071021
4,455614	54,726341	7,870	-0,065200
4,468611	67,835582	8,524	-0,059432
4,481666	81,005859	9,178	-0,053637
4,494623	93,454812	9,836	-0,048159
4,499599	99,890137	10,487	-0,045328
4,499552	99,168812	11,141	-0,045645
4,499606	99,468439	11,792	-0,045513
4,499567	99,769176	12,447	-0,045381
4,499631	99,950062	13,099	-0,045301
4,499541	99,769176	13,753	-0,045381
4,499540	99,769176	14,407	-0,045381
4,499561	100,190874	15,059	-0,045195
4,487614	89,305531	15,711	-0,049985
4,474615	75,533780	16,362	-0,056044
4,461620	62,062766	17,015	-0,061972
4,449646	49,434038	17,668	-0,067528
4,462575	60,739968	18,286	-0,062554
4,475520	74,691495	18,941	-0,056415
4,488581	87,321333	19,596	-0,050858
4,501592	100,370650	20,249	-0,045116
4,514609	113,901589	20,902	-0,039163
4,527562	125,328480	21,557	-0,034135
4,540576	138,799494	22,210	-0,028208
4,553570	151,849920	22,864	-0,022465
4,566578	164,779386	23,519	-0,016776
4,579528	178,250400	24,173	-0,010849
4,592511	190,518466	24,824	-0,005451
4,605569	204,230291	25,479	0,000582
4,618587	216,558283	26,133	0,006006
4,631518	228,827459	26,790	0,011405
4,644572	242,057662	27,446	0,017226
4,657501	255,588601	28,102	0,023180
4,670527	268,518066	28,756	0,028869
4,683514	281,207830	29,408	0,034452
4,696552	293,957520	30,060	0,040062
4,699517	297,024814	30,712	0,041412
4,699493	297,806064	31,365	0,041755
4,699517	297,324441	32,019	0,041543
4,699488	297,986950	32,671	0,041835
4,699536	297,445401	33,327	0,041597
4,699539	298,226651	33,979	0,041940
4,699483	297,865989	34,632	0,041782
4,698501	297,565252	35,286	0,041649
4,685504	284,755637	35,941	0,036013
4,672477	271,525435	36,593	0,030192
4,659585	258,896706	37,246	0,024635
4,646581	245,244806	37,903	0,018628
4,633488	232,375266	38,558	0,012966
4,620572	219,024103	39,209	0,007091
4,607560	206,876998	39,862	0,001747
4,603529	200,802335	40,478	-0,000926
4,616589	213,552024	41,130	0,004684
4,629540	226,241788	41,782	0,010267
4,642508	237,968306	42,437	0,015427
4,655552	251,919833	43,089	0,021565
4,668531	266,113281	43,743	0,027811
4,681564	278,201571	44,393	0,033129
4,694525	292,153098	45,053	0,039268
4,707525	304,661976	45,717	0,044772
4,720555	317,411665	46,373	0,050382
4,733531	331,423118	47,029	0,056547
4,746473	342,790083	47,682	0,061548
4,759552	356,321023	48,337	0,067502
4,772435	369,250488	48,989	0,073191
4,785494	382,179954	49,640	0,078880
4,798537	395,291415	50,294	0,084649
4,811464	407,980069	50,947	0,090232
4,824551	420,969460	51,600	0,095947
4,837455	433,599299	52,252	0,101504
4,850464	446,528764	52,906	0,107193
4,863449	458,917791	53,561	0,112645
4,876502	471,486594	54,215	0,118175
4,889419	484,897683	54,870	0,124076
4,899506	496,203613	55,523	0,129050
4,899407	496,082653	56,175	0,128997
4,899450	496,082653	56,826	0,128997
4,899454	496,263539	57,479	0,129077
4,899438	496,323464	58,131	0,129103
4,899450	496,082653	58,787	0,128997
4,899443	495,902876	59,440	0,128918
4,899440	496,022727	60,091	0,128971
4,892429	490,309837	60,742	0,126457
4,879491	476,838823	61,399	0,120530
4,866425	463,849432	62,055	0,114814
4,853470	450,918857	62,712	0,109125
4,840470	437,507768	63,371	0,103224
4,827491	424,337491	64,026	0,097429
4,814509	411,167214	64,681	0,091634
4,801501	397,937012	65,337	0,085813
4,788480	385,308283	65,987	0,080256
4,775479	371,957120	66,642	0,074382
4,762529	358,846768	67,293	0,068613
4,749557	345,856268	67,947	0,062897
4,761503	355,779474	68,566	0,067264
4,774443	369,130637	69,220	0,073138
4,787446	382,179954	69,872	0,078880
4,800485	395,531117	70,537	0,084754
4,813478	409,362793	71,191	0,090840
4,826464	421,631969	71,844	0,096239
4,839465	434,139737	72,497	0,101742
4,852442	447,490900	73,150	0,107617
4,865525	460,481401	73,803	0,113333
4,878459	472,267844	74,455	0,118519
4,891444	486,099521	75,114	0,124604
4,904400	499,030096	75,779	0,130294
4,917440	512,381259	76,432	0,136168
4,930430	525,972124	77,090	0,142148
4,943433	538,300115	77,744	0,147573
4,956418	551,470392	78,396	0,153368
4,969436	564,039196	79,057	0,158898
4,982377	576,669034	79,711	0,164455
4,995381	589,719460	80,368	0,170197
5,008420	602,768777	81,025	0,175939
5,021412	615,998979	81,678	0,181760
5,034428	628,748668	82,330	0,187370
5,047432	641,318581	82,984	0,192901
5,060342	654,248047	83,637	0,198590
5,073367	667,057662	84,290	0,204226
5,086345	680,168013	84,944	0,209995
5,099408	692,376154	85,600	0,215366
5,099396	693,818803	86,253	0,216001
5,099369	693,458141	86,906	0,215842
5,099335	693,157404	87,558	0,215710
5,099424	693,577992	88,214	0,215895
5,099342	693,818803	88,868	0,216001
5,099379	693,097479	89,522	0,215684
5,099358	693,938654	90,175	0,216054
5,095394	690,390847	90,827	0,214493
5,082365	676,799982	91,482	0,208513
5,069355	663,869407	92,138	0,202823
5,056340	651,240678	92,791	0,197267
5,043424	637,649814	93,451	0,191287
5,030393	625,982111	94,102	0,186153
5,017384	612,030584	94,757	0,180014
5,004427	598,559570	95,409	0,174087
4,991431	585,809881	96,062	0,168477
4,978478	572,518643	96,716	0,162629
4,965450	559,469327	97,367	0,156887
4,952420	546,538752	98,020	0,151198
4,939501	533,429510	98,672	0,145430
4,926430	520,739746	99,333	0,139846
4,913455	507,027921	99,987	0,133813
4,900405	493,797718	100,644	0,127992
4,910438	502,097390	101,258	0,131644
4,923416	515,628329	101,913	0,137597
4,936451	529,280229	102,566	0,143604
4,949413	542,269620	103,220	0,149319
4,962366	554,296875	103,874	0,154611
4,975405	567,588113	104,528	0,160459
4,988449	581,660600	105,183	0,166651
5,001394	592,966531	105,836	0,171626
5,014380	606,437544	106,513	0,177553
5,027441	620,149370	107,169	0,183586
5,040379	632,958984	107,823	0,189223
5,053435	646,249112	108,479	0,195070
5,066362	659,540350	109,131	0,200918
5,079364	672,469815	109,784	0,206607
5,092378	685,038619	110,436	0,212138
5,105372	698,268821	111,088	0,217959
5,118349	711,980646	111,742	0,223992
5,131378	724,009011	112,394	0,229285
5,144276	737,119363	113,048	0,235053
5,157373	749,988903	113,698	0,240716
5,170345	762,737482	114,351	0,246325
5,183358	775,847834	115,003	0,252094
5,196411	788,537598	115,657	0,257677
5,209324	801,707875	116,313	0,263472
5,222269	814,818226	116,965	0,269241
5,235357	827,446955	117,623	0,274797
5,248329	840,196644	118,279	0,280407
5,261287	852,946333	118,932	0,286017
5,274351	865,875799	119,586	0,291706
5,287319	879,286887	120,240	0,297607
5,299347	891,975542	120,892	0,303190
5,299335	891,975542	121,544	0,303190
5,299314	891,915616	122,198	0,303164
5,299312	891,975542	122,852	0,303190
5,299325	891,735840	123,505	0,303084
5,299342	891,674805	124,158	0,303058
5,299347	890,772594	124,809	0,302661
5,299315	891,375178	125,463	0,302926
5,294321	887,465598	126,117	0,301206
5,281349	873,753773	126,772	0,295172
5,268331	861,485707	127,425	0,289774
5,255335	848,315430	128,078	0,283979
5,242358	834,002131	128,733	0,277682
5,229392	821,914950	129,387	0,272363
5,216345	808,984375	130,037	0,266674
5,203351	796,415572	130,691	0,261144
5,190313	782,823597	131,343	0,255163
5,177308	769,413619	131,997	0,249263
5,164323	756,122381	132,650	0,243415
5,151383	743,373801	133,303	0,237805
5,138385	730,082564	133,956	0,231957
5,125409	717,272949	134,609	0,226321
5,112397	704,403409	135,262	0,220658
5,099419	692,074308	135,915	0,215233
5,086407	678,363592	136,569	0,209201
5,073427	664,892578	137,222	0,203273
5,060456	651,842152	137,874	0,197531
5,047385	638,731800	138,528	0,191763
5,034436	626,162997	139,181	0,186232
5,021374	612,150435	139,835	0,180067
5,008486	599,161044	140,488	0,174352
4,995394	586,411355	141,140	0,168742
4,982425	573,722701	141,796	0,163159
4,969472	560,973011	142,449	0,157549
4,956481	547,381037	143,100	0,151568
4,943479	534,993120	143,753	0,146118
4,930479	521,462180	144,407	0,140164
4,917497	507,930131	145,058	0,134210
4,904424	495,542214	145,710	0,128759
4,891486	482,131126	146,363	0,122858
4,878484	469,562322	147,014	0,117328
4,865420	456,211159	147,668	0,111454
4,852432	443,883168	148,321	0,106029
4,839525	431,434215	148,979	0,100552
4,826438	417,301802	149,630	0,094333
4,813488	404,131525	150,291	0,088539
4,800465	392,343972	151,060	0,083352
4,787515	378,090598	151,714	0,077081
4,774490	365,282093	152,373	0,071445
4,761528	352,893066	153,024	0,065994
4,748516	339,963601	153,677	0,060305
4,735431	327,033026	154,413	0,054615
4,722516	313,802823	155,067	0,048794
4,709525	302,136230	155,723	0,043661
4,696552	288,304554	156,378	0,037575
4,683550	275,674716	157,040	0,032018
4,670570	262,083851	157,693	0,026038
4,657515	249,214311	158,348	0,020375
4,644550	236,885210	159,003	0,014950
4,631552	224,256481	159,655	0,009394
4,618521	211,627752	160,307	0,003837
4,605563	200,682484	160,958	-0,000979
4,592556	187,090510	161,610	-0,006959
4,579592	174,822443	162,261	-0,012357
4,566557	163,275701	162,922	-0,017438
4,553582	149,624911	163,574	-0,023444
4,540563	136,152788	164,238	-0,029372
4,527561	123,645020	164,898	-0,034875
4,514583	111,255993	165,555	-0,040327
4,501536	99,288663	166,211	-0,045592
4,488525	85,817649	166,862	-0,051520
4,475539	73,549583	167,513	-0,056917
4,462596	62,182617	168,165	-0,061919
4,449581	47,930353	168,818	-0,068190
4,436566	35,601252	169,471	-0,073615
4,423552	22,490900	170,138	-0,079383
4,410578	9,862172	170,803	-0,084940
4,397609	-3,308105	171,457	-0,090735
4,384648	-15,636097	172,108	-0,096159
4,371595	-8,781294	172,765	-0,093143
4,358622	-9,502619	173,418	-0,093460
4,345602	-9,020996	174,071	-0,093249
4,332610	-9,321733	174,739	-0,093381
4,319666	-8,720259	175,397	-0,093116
4,306594	-9,502619	176,060	-0,093460
4,299623	-8,781294	176,416	-0,093143

File: partial unload on sapphire-4
Quasi static measurement routine
Tip parameters (shape,radius, material...)
11.07.2022

Piezo position[nm]	MEMS displ.[nm]	Time[ms]	Cap [pf]
eoh
2,069949	0,060754	0,175	-0,115291
2,095960	0,426402	0,840	-0,115132
2,121934	2,499910	1,506	-0,114232
2,147946	2,682172	2,168	-0,114153
2,173980	5,425097	2,843	-0,112962
2,199984	7,864253	3,532	-0,111904
2,225955	-3,719488	4,201	-0,116931
2,251968	-1,219578	4,886	-0,115846
2,277974	-1,586352	5,559	-0,116005
2,303942	14,814948	6,221	-0,108887
2,329982	32,618088	6,901	-0,101161
2,355972	49,873317	7,575	-0,093672
2,381961	64,932406	8,232	-0,087136
2,408002	79,443584	8,889	-0,080838
2,433884	93,161587	9,575	-0,074885
2,459980	109,502133	10,239	-0,067793
2,469946	114,744969	10,900	-0,065518
2,469987	114,195934	11,569	-0,065756
2,469944	114,135180	12,235	-0,065782
2,469953	113,403883	12,894	-0,066100
2,469970	113,403883	13,552	-0,066100
2,469970	113,220496	14,220	-0,066179
2,469893	113,098988	14,871	-0,066232
2,469976	112,611832	15,531	-0,066443
2,445894	95,966392	16,202	-0,073667
2,419899	76,455393	16,863	-0,082135
2,393989	59,079781	17,528	-0,089676
2,369900	41,337396	18,182	-0,097376
2,395943	59,201289	18,827	-0,089624
2,421966	78,651534	19,479	-0,081182
2,447955	97,551618	20,134	-0,072979
2,473934	116,146808	20,807	-0,064909
2,499952	132,548108	21,483	-0,057791
2,525987	146,693638	22,160	-0,051652
2,551955	163,521340	22,825	-0,044349
2,577925	179,311726	23,505	-0,037496
2,603968	194,555327	24,161	-0,030880
2,629952	209,431029	24,851	-0,024424
2,655905	225,832328	25,506	-0,017306
2,681951	243,086433	26,169	-0,009817
2,707954	260,097521	26,833	-0,002435
2,733947	276,925223	27,490	0,004869
2,759926	294,241206	28,145	0,012384
2,785965	311,495311	28,816	0,019872
2,811969	329,359204	29,471	0,027625
2,837899	345,638996	30,126	0,034690
2,863993	364,173432	30,802	0,042734
2,869954	366,550709	31,457	0,043766
2,869955	366,673342	32,121	0,043819
2,869969	365,697905	32,789	0,043396
2,869937	365,575272	33,448	0,043343
2,869950	365,637151	34,107	0,043370
2,869939	365,637151	34,766	0,043370
2,869902	366,185061	35,426	0,043607
2,867970	365,148870	36,091	0,043158
2,841944	345,943890	36,802	0,034823
2,815921	328,078872	37,458	0,027069
2,789943	309,300295	38,126	0,018919
2,763921	290,460965	38,790	0,010743
2,737938	272,474438	39,458	0,002937
2,711937	253,330213	40,114	-0,005372
2,685945	235,343687	40,776	-0,013178
2,677973	230,038972	41,424	-0,015480
2,703958	248,208885	42,080	-0,007594
2,730009	266,987462	42,751	0,000556
2,755933	284,912109	43,425	0,008335
2,781978	303,752565	44,094	0,016512
2,807974	322,042861	44,774	0,024450
2,833984	340,944070	45,428	0,032653
2,859940	358,991350	46,100	0,040485
2,885984	377,648419	46,755	0,048583
2,911957	396,061348	47,415	0,056574
2,937969	413,315452	48,104	0,064062
2,963915	430,997084	48,765	0,071736
2,989899	449,348133	49,436	0,079700
3,015940	467,518046	50,105	0,087586
3,041919	485,137799	50,773	0,095233
3,067890	503,429219	51,426	0,103171
3,093943	521,050097	52,122	0,110819
3,119956	539,461901	52,781	0,118810
3,145855	558,363110	53,448	0,127013
3,171936	575,739847	54,121	0,134554
3,197910	594,152776	54,781	0,142545
3,223920	612,077423	55,453	0,150325
3,249888	630,551105	56,129	0,158342
3,269873	644,391741	56,789	0,164349
3,269858	644,391741	57,444	0,164349
3,269852	643,965339	58,126	0,164164
3,269869	643,965339	58,782	0,164164
3,269878	643,842706	59,439	0,164111
3,269865	643,781952	60,113	0,164084
3,269862	644,330987	60,786	0,164323
3,269877	643,477058	61,439	0,163952
3,255866	633,721558	62,103	0,159718
3,229934	615,431263	62,775	0,151780
3,203893	596,530053	63,429	0,143577
3,177839	578,300511	64,083	0,135666
3,151897	559,887583	64,749	0,127674
3,125910	540,925619	65,410	0,119445
3,099931	522,756831	66,085	0,111560
3,073983	503,794868	66,776	0,103330
3,047923	486,418131	67,434	0,095789
3,021944	467,152398	68,087	0,087427
2,995940	448,800223	68,758	0,079462
2,969867	430,326541	69,428	0,071445
2,993904	447,519891	70,123	0,078907
3,019863	466,969011	70,796	0,087348
3,045894	485,381939	71,462	0,095339
3,071914	502,942063	72,137	0,102960
3,097883	521,659886	72,830	0,111083
3,123906	540,315830	73,495	0,119180
3,149907	558,545372	74,151	0,127092
3,175952	576,776039	74,804	0,135004
3,201942	595,188967	75,461	0,142995
3,227854	614,211685	76,121	0,151251
3,253904	632,503105	76,790	0,159189
3,279888	650,611139	77,447	0,167048
3,305928	669,024068	78,100	0,175040
3,331931	687,558504	78,761	0,183083
3,357869	705,545030	79,424	0,190890
3,383880	724,141345	80,093	0,198960
3,409870	742,675781	80,748	0,207004
3,435829	760,418167	81,400	0,214705
3,461821	778,465447	82,064	0,222537
3,487830	796,816496	82,742	0,230501
3,513856	814,924530	83,423	0,238360
3,539865	832,484654	84,100	0,245981
3,565844	850,774950	84,755	0,253919
3,591843	868,944862	85,405	0,261805
3,617806	886,625369	86,056	0,269479
3,643779	906,136368	86,710	0,277946
3,669800	923,878753	87,380	0,285646
3,669838	924,367034	88,052	0,285858
3,669855	924,367034	88,707	0,285858
3,669779	924,183648	89,384	0,285779
3,669807	924,793437	90,051	0,286043
3,669820	924,061015	90,706	0,285726
3,669799	924,061015	91,362	0,285726
3,669848	924,305156	92,014	0,285832
3,661787	918,147636	92,698	0,283159
3,635890	898,515130	93,367	0,274639
3,609845	879,066010	94,043	0,266198
3,583805	859,920660	94,700	0,257889
3,557792	840,715681	95,355	0,249554
3,531821	822,119366	96,028	0,241483
3,505795	803,158527	96,684	0,233254
3,479808	784,806353	97,354	0,225289
3,453857	766,149284	98,006	0,217192
3,427896	747,126566	98,665	0,208936
3,401826	728,835145	99,340	0,200998
3,375823	710,848619	100,001	0,193191
3,349841	692,192675	100,658	0,185095
3,323867	674,084641	101,325	0,177236
3,297835	655,793221	102,002	0,169297
3,271900	636,770503	102,682	0,161042
3,291928	651,220928	103,342	0,167313
3,317856	669,816118	104,004	0,175383
3,343886	688,717328	104,668	0,183586
3,369892	706,641975	105,349	0,191366
3,395863	725,116782	106,006	0,199384
3,421900	743,834605	106,669	0,207507
3,447880	761,942639	107,324	0,215366
3,473880	780,354443	107,997	0,223357
3,499856	799,499793	108,665	0,231666
3,525884	817,912721	109,321	0,239657
3,551897	836,447158	109,989	0,247701
3,577825	855,897402	110,654	0,256143
3,603865	875,956311	111,335	0,264848
3,629820	894,918275	112,016	0,273078
3,655827	914,549656	112,667	0,281598
3,681800	934,060655	113,330	0,290065
3,707792	952,839232	114,023	0,298215
3,733807	972,715879	114,710	0,306842
3,759810	992,348385	115,391	0,315362
3,785852	1011,736751	116,086	0,323777
3,811824	1031,673027	116,739	0,332429
3,837863	1051,244780	117,427	0,340923
3,863835	1071,365567	118,120	0,349656
3,889808	1091,424476	118,795	0,358361
3,915810	1111,483385	119,453	0,367067
3,941805	1130,627610	120,149	0,375375
3,967811	1150,869906	120,821	0,384161
3,993753	1170,258272	121,476	0,392575
4,019780	1190,682829	122,159	0,401439
4,045762	1210,682109	122,836	0,410119
4,069805	1229,033158	123,502	0,418083
4,069759	1228,606756	124,168	0,417898
4,069794	1228,850896	124,832	0,418004
4,069793	1228,485248	125,506	0,417846
4,069751	1228,667510	126,180	0,417925
4,069795	1228,546002	126,866	0,417872
4,069793	1228,424494	127,527	0,417819
4,069825	1227,814705	128,183	0,417555
4,059814	1220,741377	128,847	0,414485
4,033810	1200,133434	129,516	0,405541
4,007801	1180,136404	130,173	0,396862
3,981785	1160,015616	130,826	0,388130
3,955797	1139,163531	131,484	0,379080
3,929834	1119,288009	132,169	0,370454
3,903846	1099,227976	132,825	0,361748
3,877854	1079,473961	133,484	0,353175
3,851780	1059,415053	134,137	0,344469
3,825835	1038,928616	134,791	0,335578
3,799853	1019,905899	135,488	0,327322
3,773819	1000,091131	136,162	0,318723
3,747868	980,519378	136,846	0,310229
3,721847	960,704610	137,505	0,301629
3,695879	941,255490	138,201	0,293188
3,669808	921,622984	138,862	0,284667
3,643823	903,392317	139,543	0,276755
3,617855	883,394162	140,223	0,268076
3,591844	864,249937	140,922	0,259768
3,565871	844,922325	141,598	0,251379
3,539803	826,082994	142,254	0,243203
3,513869	807,060277	142,934	0,234947
3,487908	788,585469	143,612	0,226929
3,461877	769,867647	144,281	0,218806
3,435901	751,882245	144,936	0,211000
3,409899	733,103669	145,612	0,202850
3,383905	715,056389	146,282	0,195018
3,357921	696,643460	146,951	0,187026
3,331896	678,107899	147,638	0,178982
3,305868	659,694970	148,299	0,170991
3,279975	641,099780	149,014	0,162920
3,253913	622,991746	149,678	0,155062
3,227905	604,395431	150,344	0,146991
3,201912	585,860995	151,009	0,138947
3,175917	568,910660	151,681	0,131590
3,149987	549,035138	152,341	0,122964
3,123915	531,230874	153,032	0,115237
3,097920	512,514176	153,694	0,107114
3,071982	493,796353	154,357	0,098991
3,045939	475,139284	155,039	0,090894
3,019955	456,847863	155,715	0,082955
2,993959	439,167357	156,394	0,075282
2,967994	420,022006	157,061	0,066973
2,941917	401,304183	157,745	0,058849
2,915934	383,256903	158,412	0,051017
2,889970	363,807784	159,079	0,042576
2,863944	346,370293	159,756	0,035008
2,837978	328,749415	160,436	0,027360
2,812006	308,264104	161,118	0,018470
2,785970	290,765859	161,799	0,010875
2,759980	272,230298	162,457	0,002831
2,733954	254,305651	163,151	-0,004948
2,707934	235,831968	163,813	-0,012966
2,681967	217,114145	164,483	-0,021089
2,655980	198,517830	165,156	-0,029160
2,629955	179,860761	165,818	-0,037257
2,603972	161,691973	166,513	-0,045143
2,578003	142,974150	167,168	-0,053266
2,551981	124,561222	167,853	-0,061257
2,526029	106,453188	168,519	-0,069116
2,499982	87,491224	169,174	-0,077346
2,473975	68,834155	169,854	-0,085443
2,448009	50,481981	170,514	-0,093408
2,421960	33,045615	171,207	-0,100975
2,395981	14,265913	171,865	-0,109125
2,369960	-4,512664	172,533	-0,117275
2,343979	-23,473502	173,229	-0,125504
2,318001	-42,191325	173,909	-0,133628
2,291957	-60,482746	174,599	-0,141566
2,265962	-22,437311	175,282	-0,125055
2,240018	-25,547010	175,960	-0,126404
2,213941	-31,643775	176,643	-0,129050
2,187980	-35,484771	177,329	-0,130717
2,161967	-26,522447	178,024	-0,126828
2,135982	-12,499550	178,709	-0,120742
2,109962	-4,085136	179,404	-0,117090
2,083971	-1,158824	180,099	-0,115820
2,069963	-0,306020	180,475	-0,115450