Folder: Nanoindentation_Analysis/Nanoindentation Datenauswertung/data/Test Measurement (part 2)

File: 2,3um
Quasi static measurement routine
Tip parameters (shape,radius, material...)
11.07.2022

Piezo position[nm]	MEMS displ.[nm]	Time[ms]	Cap [pf]
eoh
2,275907	0,608664	0,188	-0,095075
2,293878	0,365648	0,642	-0,095180
2,311865	0,243016	1,093	-0,095233
2,329941	-0,304895	1,546	-0,095471
2,347845	0,487156	1,997	-0,095127
2,365956	0,000000	2,447	-0,095339
2,383878	-0,183387	2,900	-0,095418
2,401855	-1,524473	3,352	-0,096000
2,419870	-2,378402	3,811	-0,096371
2,437920	-2,073508	4,270	-0,096239
2,455838	-2,378402	4,722	-0,096371
2,473851	-3,171578	5,175	-0,096715
2,491865	-3,293086	5,626	-0,096768
2,509924	-4,329277	6,079	-0,097218
2,527910	-5,914504	6,532	-0,097906
2,545865	-2,012754	6,982	-0,096212
2,563863	10,608304	7,437	-0,090735
2,581918	22,436186	7,890	-0,085602
2,599889	33,288630	8,344	-0,080892
2,617886	45,788180	8,795	-0,075467
2,635880	56,458363	9,248	-0,070836
2,653845	67,248929	9,703	-0,066153
2,671878	78,894549	10,156	-0,061099
2,689864	88,954943	10,609	-0,056732
2,707876	99,685880	11,060	-0,052075
2,725881	110,233430	11,512	-0,047498
2,743872	118,585965	11,981	-0,043873
2,761871	127,366026	12,438	-0,040062
2,779886	137,487174	12,890	-0,035669
2,797884	148,034724	13,340	-0,031092
2,815856	158,095118	13,794	-0,026726
2,833815	167,849492	14,247	-0,022492
2,851865	177,788378	14,697	-0,018179
2,869860	187,665386	15,156	-0,013892
2,887878	195,103237	15,615	-0,010664
2,905875	205,224384	16,072	-0,006271
2,923852	213,699552	16,525	-0,002593
2,941874	223,027524	16,976	0,001455
2,959895	232,966410	17,433	0,005769
2,977843	242,660030	17,894	0,009976
2,995878	250,769549	18,353	0,013495
3,013830	258,146646	18,816	0,016697
3,031845	267,048216	19,269	0,020560
3,049839	277,047856	19,721	0,024900
3,067859	286,864109	20,173	0,029160
3,085849	295,094011	20,626	0,032732
3,103949	304,362354	21,077	0,036754
3,121865	310,580627	21,529	0,039453
3,139807	318,934287	21,981	0,043079
3,157857	328,262259	22,433	0,047127
3,175866	337,590231	22,887	0,051175
3,193842	340,334281	23,340	0,052366
3,211841	349,601499	23,792	0,056388
3,229832	359,661893	24,246	0,060754
3,247843	369,904549	24,697	0,065200
3,265846	374,965123	25,149	0,067396
3,283826	384,354974	25,600	0,071471
3,301776	391,548684	26,053	0,074593
3,319801	398,377871	26,506	0,077557
3,337770	408,438265	26,959	0,081923
3,355770	414,839925	27,411	0,084702
3,373777	420,387655	27,865	0,087109
3,391806	431,667627	28,350	0,092005
3,409777	442,824966	28,805	0,096847
3,427796	455,567531	29,258	0,102377
3,445776	468,493484	29,709	0,107987
3,463791	481,175295	30,160	0,113491
3,481840	494,222755	30,613	0,119154
3,499798	507,148708	31,067	0,124764
3,517825	519,647132	31,529	0,130188
3,535778	533,061366	31,996	0,136010
3,553816	545,499037	32,457	0,141408
3,571785	558,790638	32,912	0,147176
3,589765	568,667645	33,366	0,151463
3,607771	579,824984	33,817	0,156305
3,625766	590,616674	34,301	0,160989
3,643811	602,870959	34,777	0,166307
3,661751	616,223313	35,249	0,172102
3,679774	629,027758	35,712	0,177659
3,697811	642,258605	36,164	0,183401
3,715770	656,342256	36,618	0,189514
3,733791	669,328962	37,084	0,195150
3,751746	683,046965	37,557	0,201104
3,769734	696,217058	38,009	0,206819
3,787732	709,507533	38,461	0,212587
3,805697	722,556119	38,916	0,218250
3,823745	735,420192	39,368	0,223833
3,841718	748,467652	39,820	0,229496
3,859768	761,637745	40,273	0,235212
3,877744	774,319556	40,742	0,240716
3,895728	787,732665	41,218	0,246537
3,913739	799,986949	41,670	0,251855
3,931741	813,096288	42,148	0,257545
3,949678	826,387889	42,613	0,263313
3,967657	838,520665	43,069	0,268579
3,985719	851,446618	43,525	0,274189
4,003744	864,189183	43,984	0,279719
4,021714	876,261206	44,454	0,284958
4,039745	888,211721	44,916	0,290145
4,057665	899,064165	45,368	0,294855
4,075761	909,611715	45,819	0,299433
4,093699	922,110140	46,269	0,304857
4,111660	934,791952	46,724	0,310361
4,129690	947,291502	47,177	0,315786
4,147704	960,460469	47,631	0,321501
4,165718	973,447176	48,096	0,327137
4,183691	986,556515	48,553	0,332827
4,201682	999,176447	49,022	0,338304
4,219651	1012,712189	49,484	0,344178
4,237675	1025,454754	49,973	0,349708
4,255735	1038,685601	50,426	0,355451
4,273712	1052,525112	50,883	0,361457
4,291676	1064,902029	51,345	0,366829
4,309696	1077,827981	51,810	0,372438
4,327678	1091,668617	52,273	0,378445
4,345647	1105,142479	52,727	0,384293
4,363654	1118,494834	53,182	0,390088
4,381692	1131,238524	53,637	0,395619
4,399640	1144,529000	54,108	0,401387
4,417705	1158,369636	54,578	0,407394
4,435645	1171,295588	55,033	0,413003
4,453636	1184,464556	55,486	0,418719
4,471658	1198,000297	55,955	0,424593
4,489618	1210,987003	56,433	0,430229
4,507666	1224,216725	56,884	0,435971
4,525601	1237,935853	57,347	0,441925
4,543629	1250,799926	57,809	0,447508
4,561627	1263,970019	58,262	0,453224
4,575660	1273,968534	58,715	0,457563
4,575636	1274,883218	59,179	0,457960
4,575583	1274,273428	59,631	0,457696
4,575596	1273,968534	60,083	0,457563
4,575562	1274,212675	60,537	0,457669
4,575608	1274,396061	60,988	0,457749
4,575567	1273,786272	61,441	0,457484
4,575607	1273,480253	61,894	0,457352
4,575575	1274,151921	62,371	0,457643
4,575614	1273,847026	62,833	0,457511
4,575615	1274,699831	63,286	0,457881
4,573652	1272,627448	63,755	0,456981
4,555614	1259,091707	64,219	0,451107
4,537614	1245,191442	64,676	0,445074
4,519598	1231,960595	65,135	0,439332
4,501613	1218,180714	65,587	0,433352
4,483658	1205,133254	66,041	0,427689
4,465640	1192,146547	66,494	0,422053
4,447622	1178,854947	66,946	0,416284
4,429650	1164,222260	67,397	0,409934
4,411662	1151,663081	67,858	0,404483
4,393725	1138,615621	68,333	0,398820
4,375644	1123,982935	68,791	0,392470
4,357686	1110,934350	69,265	0,386807
4,339668	1098,009523	69,739	0,381197
4,321712	1084,108133	70,190	0,375164
4,303693	1070,145989	70,643	0,369104
4,285720	1057,280791	71,094	0,363521
4,267720	1043,746175	71,586	0,357647
4,249684	1030,027047	72,055	0,351693
4,231701	1016,918833	72,517	0,346004
4,213685	1003,322338	72,973	0,340103
4,195694	989,969983	73,444	0,334308
4,177679	976,312734	73,898	0,328381
4,159713	963,204520	74,349	0,322692
4,141739	949,424638	74,802	0,316711
4,123713	935,890022	75,273	0,310837
4,105700	922,659175	75,729	0,305095
4,087661	909,306821	76,204	0,299300
4,069700	895,588818	76,669	0,293347
4,051688	882,297217	77,154	0,287578
4,033702	868,456581	77,624	0,281571
4,015724	854,982719	78,089	0,275724
3,997731	841,935259	78,546	0,270061
3,979772	827,606342	79,000	0,263842
3,961771	813,401183	79,456	0,257677
3,943742	799,743934	79,912	0,251750
3,925718	786,024806	80,397	0,245796
3,907743	772,062662	80,853	0,239736
3,889738	758,832940	81,304	0,233995
3,871733	744,261008	81,755	0,227670
3,853723	730,603759	82,226	0,221743
3,835827	716,885756	82,703	0,215790
3,817773	703,289261	83,160	0,209889
3,799757	689,692765	83,614	0,203988
3,781770	675,609114	84,079	0,197875
3,763753	661,646970	84,555	0,191816
3,745760	647,196546	85,012	0,185544
3,727777	633,783437	85,467	0,179723
3,709762	620,857485	85,927	0,174113
3,691728	605,798396	86,390	0,167578
3,673770	592,811690	86,852	0,161941
3,655749	579,336703	87,312	0,156093
3,637752	565,253051	87,763	0,149981
3,619781	551,412415	88,216	0,143974
3,601768	537,876674	88,683	0,138100
3,583777	524,342058	89,152	0,132226
3,565785	511,050457	89,607	0,126457
3,547771	497,942243	90,058	0,120768
3,529822	483,614451	90,526	0,114550
3,511786	470,444358	90,990	0,108834
3,493790	457,092004	91,444	0,103039
3,475750	442,885720	91,906	0,096874
3,457775	430,326541	92,382	0,091423
3,439764	416,669292	92,840	0,085496
3,421819	403,559953	93,309	0,079806
3,403770	390,146844	93,764	0,073985
3,385798	376,794490	94,231	0,068190
3,367817	363,502889	94,685	0,062421
3,349771	350,272042	95,154	0,056679
3,331845	337,652110	95,606	0,051202
3,313844	325,031052	96,058	0,045725
3,295838	312,349240	96,518	0,040221
3,277860	299,911569	96,979	0,034823
3,259831	286,558090	97,438	0,029027
3,241899	274,669454	97,907	0,023868
3,223826	261,072959	98,384	0,017967
3,205837	248,025499	98,856	0,012304
3,187851	235,404441	99,318	0,006827
3,169864	223,089403	99,789	0,001482
3,151848	210,345712	100,263	-0,004049
3,133859	197,663900	100,718	-0,009553
3,115877	184,434179	101,172	-0,015294
3,097858	172,788558	101,646	-0,020349
3,079854	158,765661	102,113	-0,026435
3,061892	146,875900	102,568	-0,031595
3,043866	135,292159	103,023	-0,036622
3,025894	125,658167	103,487	-0,040803
3,007883	115,110617	103,955	-0,045381
2,989842	108,159922	104,424	-0,048397
2,971860	101,453368	104,891	-0,051308
2,953908	95,905638	105,370	-0,053716
2,935836	89,746994	105,823	-0,056389
2,917862	85,356963	106,291	-0,058294
2,899852	81,515967	106,767	-0,059961
2,881884	77,919112	107,221	-0,061522
2,863826	72,432136	107,696	-0,063903
2,845918	67,188175	108,172	-0,066179
2,827893	62,250234	108,631	-0,068322
2,809913	58,530746	109,101	-0,069937
2,791896	52,738875	109,575	-0,072450
2,773911	47,617548	110,031	-0,074673
2,755908	42,922622	110,503	-0,076710
2,737881	39,325767	110,957	-0,078271
2,719881	33,288630	111,413	-0,080892
2,701879	28,289936	111,878	-0,083061
2,683882	23,411623	112,364	-0,085178
2,665890	18,534436	112,822	-0,087295
2,647926	15,242476	113,283	-0,088724
2,629895	10,486796	113,758	-0,090788
2,611872	5,791871	114,228	-0,092825
2,593897	2,193890	114,679	-0,094387
2,575902	-1,768613	115,133	-0,096106
2,557930	-5,427347	115,584	-0,097694
2,539905	-9,145710	116,050	-0,099308
2,521865	-7,743871	116,509	-0,098700
2,503930	-6,706554	116,979	-0,098250
2,485874	-5,792996	117,439	-0,097853
2,467913	-3,902875	117,908	-0,097033
2,449886	-3,353840	118,388	-0,096794
2,431925	-3,232332	118,862	-0,096742
2,413850	-2,439156	119,336	-0,096397
2,395892	-1,768613	119,789	-0,096106
2,377909	-0,488281	120,259	-0,095551
2,359947	-0,549035	120,731	-0,095577
2,341897	-0,366773	121,216	-0,095498
2,323923	0,060754	121,685	-0,095313
2,305918	-0,488281	122,139	-0,095551
2,287904	-0,061879	122,617	-0,095366
2,275921	0,243016	122,939	-0,095233

File: modulus mapping on saphir, 2x2
Quasi static measurement routine
Tip parameters (shape,radius, material...)
29.06.2022

Piezo position[nm]	MEMS displ.[nm]	Time[ms]	Cap [pf]
eoh

X-Pos [um]	Y-Pos [um]
0,000000	0,070276

POC
3,583947
3,388705	0,721325	0,059	-0,089174
3,398879	-7,095614	0,159	-0,092613
3,408905	-7,877974	0,261	-0,092958
3,418927	-7,336426	0,362	-0,092719
3,428919	-7,095614	0,464	-0,092613
3,438879	-7,637163	0,564	-0,092852
3,448872	-7,276500	0,665	-0,092693
3,458868	-7,216575	0,765	-0,092667
3,468921	-7,637163	0,866	-0,092852
3,478876	-7,036799	0,966	-0,092587
3,488900	-7,216575	1,067	-0,092667
3,498832	-8,058860	1,168	-0,093037
3,508896	-7,336426	1,269	-0,092719
3,518877	-7,276500	1,369	-0,092693
3,528869	-6,915838	1,469	-0,092534
3,538934	-7,336426	1,570	-0,092719
3,548916	-6,915838	1,671	-0,092534
3,558915	-8,539373	1,773	-0,093249
3,568891	-8,359597	1,877	-0,093169
3,578944	-7,517312	1,977	-0,092799
3,588877	0,721325	2,077	-0,089174
3,598875	10,283869	2,178	-0,084966
3,608885	15,275435	2,287	-0,082770
3,618888	30,369984	2,388	-0,076128
3,628898	39,932528	2,489	-0,071921
3,638878	47,388805	2,589	-0,068640
3,648861	54,606490	2,690	-0,065464
3,658829	70,302512	2,791	-0,058558
3,668887	81,728294	2,892	-0,053531
3,678846	89,787154	2,993	-0,049985
3,688892	94,117321	3,094	-0,048080
3,698848	109,211870	3,196	-0,041438
3,708918	118,113015	3,296	-0,037521
3,718889	128,817472	3,396	-0,032812
3,728841	137,296919	3,497	-0,029081
3,738871	148,842551	3,598	-0,024000
3,748806	159,247381	3,698	-0,019422
3,758891	169,049627	3,798	-0,015109
3,768852	174,222079	3,899	-0,012833
3,778846	188,294567	4,000	-0,006642
3,788852	198,277699	4,100	-0,002249
3,798802	203,389116	4,346	0,000000
3,808885	217,762340	4,477	0,006324
3,818824	227,745472	4,577	0,010717
3,828833	237,908381	4,679	0,015188
3,838854	247,470925	4,779	0,019396
3,848897	257,452947	4,880	0,023788
3,858798	267,977628	4,981	0,028419
3,868843	272,909268	5,106	0,030589
3,878883	286,860795	5,207	0,036728
3,888861	297,145774	5,307	0,041253
3,898827	306,586248	5,407	0,045407
3,908835	311,398038	5,533	0,047524
3,918847	326,793324	5,634	0,054298
3,928832	336,656605	5,734	0,058638
3,938905	346,337891	5,835	0,062897
3,948802	356,201172	5,936	0,067237
3,958853	366,365190	6,036	0,071709
3,968817	375,685813	6,137	0,075811
3,978848	386,270419	6,237	0,080468
3,988842	395,471191	6,494	0,084516
3,998822	405,394398	6,595	0,088882
4,008766	410,326039	6,730	0,091052
4,018811	425,420588	6,831	0,097694
4,028734	435,102983	6,931	0,101954
4,038826	445,446777	7,032	0,106505
4,048848	455,429909	7,134	0,110898
4,058753	464,811568	7,234	0,115026
4,068823	474,553888	7,335	0,119313
4,078833	484,957608	7,436	0,123890
4,088817	493,617942	7,536	0,127701
4,098817	504,262473	7,637	0,132384
4,108774	514,425382	7,738	0,136856
4,118776	524,047852	7,839	0,141090
4,128795	533,670321	7,955	0,145324
4,138791	543,894265	8,055	0,149822
4,148850	553,515625	8,155	0,154056
4,158799	562,717507	8,255	0,158104
4,168806	572,579679	8,357	0,162444
4,178819	583,104359	8,457	0,167075
4,188796	593,147417	8,557	0,171494
4,198779	602,829812	8,657	0,175754
4,208744	612,753018	8,758	0,180120
4,218793	622,074751	8,859	0,184222
4,228781	632,297585	8,959	0,188720
4,238787	641,920055	9,060	0,192954
4,248788	652,143999	9,247	0,197452
4,258731	661,946245	9,347	0,201765
4,268743	671,868342	9,448	0,206131
4,278722	682,032360	9,548	0,210603
4,288736	691,233132	9,648	0,214651
4,298748	701,096413	9,749	0,218991
4,308800	706,328791	9,850	0,221293
4,318715	721,122603	9,969	0,227803
4,328749	730,564187	10,069	0,231957
4,338782	740,607244	10,169	0,236376
4,348772	750,831188	10,269	0,240875
4,358769	760,874245	10,369	0,245293
4,368780	770,375755	10,469	0,249474
4,378803	780,960360	10,571	0,254131
4,383757	785,471413	10,671	0,256116
4,383717	790,282093	10,771	0,258233
4,383758	790,401944	10,871	0,258286
4,383751	790,101207	10,971	0,258153
4,383730	789,560769	11,071	0,257916
4,383748	790,041282	11,171	0,258127
4,383760	789,740545	11,271	0,257995
4,383761	789,560769	11,372	0,257916
4,383775	790,162243	11,472	0,258180
4,383753	789,740545	11,573	0,257995
4,383753	789,680620	11,673	0,257968
4,383736	790,101207	11,774	0,258153
4,383729	790,041282	11,874	0,258127
4,383738	790,162243	11,974	0,258180
4,383724	789,800471	12,074	0,258021
4,383716	790,162243	12,175	0,258180
4,383752	789,319957	12,276	0,257810
4,383747	789,981357	12,376	0,258101
4,383737	789,680620	12,476	0,257968
4,383755	789,860396	12,577	0,258047
4,383771	789,981357	12,678	0,258101
4,383718	789,560769	12,778	0,257916
4,383713	789,139071	12,880	0,257730
4,383718	789,740545	12,980	0,257995
4,383746	789,740545	13,082	0,257995
4,383750	789,981357	13,183	0,258101
4,383742	789,921431	13,283	0,258074
4,383717	789,620694	13,384	0,257942
4,383749	789,620694	13,486	0,257942
4,383747	789,319957	13,586	0,257810
4,383770	789,379883	13,686	0,257836
4,383753	789,680620	13,786	0,257968
4,383745	789,319957	13,887	0,257810
4,383737	789,921431	13,987	0,258074
4,383727	789,620694	14,088	0,257942
4,383729	789,680620	14,189	0,257968
4,383721	788,658558	14,291	0,257519
4,383721	789,379883	14,391	0,257836
4,383734	789,139071	14,492	0,257730
4,383752	789,079146	14,592	0,257704
4,383725	789,800471	14,693	0,258021
4,383756	789,198997	14,793	0,257756
4,383760	789,981357	14,894	0,258101
4,383736	789,620694	14,996	0,257942
4,383735	789,560769	15,098	0,257916
4,383760	789,620694	15,198	0,257942
4,383740	789,800471	15,298	0,258021
4,383776	789,439808	15,398	0,257862
4,383723	788,658558	15,500	0,257519
4,383745	789,800471	15,601	0,258021
4,378781	789,260032	15,701	0,257783
4,368753	783,906694	15,801	0,255428
4,358724	769,955167	15,901	0,249289
4,348698	758,528276	16,001	0,244261
4,338827	749,387429	16,102	0,240239
4,328750	738,983709	16,203	0,235662
4,318754	729,060502	16,304	0,231295
4,308698	718,656783	16,405	0,226718
4,298753	708,793501	16,508	0,222378
4,288735	698,570668	16,609	0,217880
4,278742	688,948198	16,709	0,213646
4,268772	680,048162	16,810	0,209730
4,258814	668,320534	16,910	0,204570
4,248724	659,119762	17,010	0,200521
4,238822	648,535156	17,111	0,195864
4,228798	638,311213	17,212	0,191366
4,218727	628,508967	17,312	0,187053
4,208743	618,285023	17,412	0,182554
4,198764	608,602628	17,513	0,178294
4,188749	597,838246	17,613	0,173558
4,178747	588,036000	17,714	0,169245
4,168767	577,692205	17,815	0,164693
4,158810	568,009810	17,916	0,160433
4,148777	558,688077	18,018	0,156332
4,138794	548,043546	18,118	0,151648
4,128805	537,518865	18,219	0,147017
4,118775	528,378018	18,319	0,142995
4,108742	517,673562	18,419	0,138285
4,098775	507,329767	18,519	0,133734
4,088798	497,286710	18,619	0,129315
4,078816	487,484464	18,720	0,125002
4,068782	477,320446	18,821	0,120530
4,058772	467,457164	18,921	0,116190
4,048820	456,873668	19,022	0,111533
4,038742	447,371049	19,122	0,107352
4,028756	437,989391	19,223	0,103224
4,018800	428,006259	19,323	0,098832
4,008813	417,903276	19,423	0,094386
3,998808	408,341841	19,525	0,090179
3,988794	397,877086	19,625	0,085575
3,978726	388,435502	19,727	0,081420
3,968835	378,091708	19,828	0,076869
3,958797	367,988725	19,929	0,072424
3,948825	358,005593	20,030	0,068031
3,938750	348,263272	20,130	0,063745
3,928768	340,023526	20,230	0,060119
3,918781	331,605114	20,331	0,056415
3,908795	318,674538	20,432	0,050726
3,898814	308,270819	20,532	0,046148
3,888844	299,068936	20,632	0,042099
[...]
4,351845	792,567028	15,208	0,259265
4,341806	782,644931	15,309	0,254899
4,331864	772,300027	15,410	0,250347
4,321812	763,220215	15,510	0,246352
4,311792	752,034135	15,612	0,241430
4,301826	741,931152	15,712	0,236985
4,291857	732,187722	15,813	0,232698
4,281815	722,144664	15,914	0,228279
4,271804	712,764116	16,014	0,224151
4,261820	701,457076	16,115	0,219176
4,251774	696,887207	16,216	0,217166
4,241833	681,551847	16,316	0,210418
4,231852	671,989302	16,416	0,206210
4,221828	661,705433	16,516	0,201686
4,211821	651,722301	16,617	0,197293
4,201833	640,717108	16,718	0,192451
4,191859	631,456410	16,818	0,188376
4,181882	620,390181	16,919	0,183507
4,171858	610,828746	17,019	0,179300
4,161808	600,604803	17,119	0,174801
4,151868	590,681596	17,219	0,170435
4,141870	581,120162	17,319	0,166228
4,131839	571,377841	17,419	0,161941
4,121859	560,853161	17,519	0,157311
4,111827	551,170765	17,619	0,153050
4,101838	540,526234	17,720	0,148367
4,091857	530,664062	17,821	0,144027
4,081840	520,800781	17,921	0,139687
4,071862	510,216175	18,021	0,135030
4,061855	500,594815	18,123	0,130797
4,051847	490,972346	18,225	0,126563
4,041830	480,387740	18,326	0,121906
4,031957	471,006081	18,426	0,117778
4,021803	461,082875	18,527	0,113412
4,011859	450,679155	18,628	0,108834
4,001821	440,876909	18,729	0,104521
3,991890	430,772816	18,829	0,100075
3,981863	421,211381	18,929	0,095868
3,971884	410,747736	19,029	0,091264
3,961844	401,125266	19,129	0,087030
3,951877	391,202060	19,229	0,082664
3,941881	381,159002	19,330	0,078245
3,931936	370,875133	19,431	0,073720
3,921852	361,252663	19,531	0,069486
3,911888	351,811080	19,631	0,065332
3,901879	341,648171	19,731	0,060860
3,891857	332,025701	19,832	0,056626
3,881900	322,703968	19,932	0,052525
3,871942	311,999512	20,033	0,047815
3,861891	302,197266	20,133	0,043502
3,851894	292,815607	20,234	0,039374
3,841893	282,290927	20,335	0,034743
3,831879	272,969194	20,435	0,030642
3,821910	263,527610	20,536	0,026487
3,811916	253,484553	20,636	0,022068
3,801804	243,320534	20,736	0,017596
3,791853	233,217551	20,836	0,013151
3,781903	224,377441	20,937	0,009261
3,771911	215,236594	21,037	0,005239
3,761937	205,133612	21,137	0,000794
3,751884	195,270330	21,238	-0,003546
3,741917	185,828746	21,339	-0,007700
3,731845	175,965465	21,439	-0,012040
3,721814	165,983443	21,539	-0,016432
3,711920	157,203258	21,639	-0,020295
3,701880	145,475630	21,740	-0,025456
3,691863	136,334783	21,840	-0,029478
3,681894	126,411577	21,940	-0,033844
3,671866	116,007857	22,040	-0,038421
3,661887	107,347523	22,140	-0,042232
3,651933	96,943803	22,240	-0,046810
3,641889	87,080522	22,341	-0,051149
3,631987	77,579013	22,441	-0,055330
3,621924	67,476030	22,541	-0,059775
3,611875	58,034446	22,641	-0,063930
3,601842	47,991388	22,742	-0,068349
3,591940	38,488770	22,844	-0,072530
3,581860	28,566673	22,946	-0,076896
3,571911	18,944203	23,046	-0,081129
3,561947	8,359597	23,147	-0,085787
3,551852	-0,721325	23,247	-0,089782
3,541902	-10,463645	23,349	-0,094069
3,531908	-8,118786	23,450	-0,093037
3,521948	-7,757013	23,551	-0,092878
3,511880	-7,997825	23,652	-0,092984
3,501914	-8,599299	23,753	-0,093249
3,491940	-8,359597	23,854	-0,093143
3,481940	-8,359597	23,956	-0,093143
3,471909	-8,359597	24,056	-0,093143
3,461886	-8,359597	24,156	-0,093143
3,451976	-8,118786	24,257	-0,093037
3,442011	-8,238636	24,357	-0,093090
3,431969	-7,877974	24,458	-0,092931
3,421974	-7,637163	24,559	-0,092825
3,411934	-8,178711	24,659	-0,093063
3,401915	-7,637163	24,761	-0,092825
3,391977	-7,517312	24,861	-0,092772
3,381913	-7,457386	24,962	-0,092746
3,371971	-7,336426	25,063	-0,092693
3,361956	-7,276500	25,164	-0,092667
3,356976	-7,637163	25,214	-0,092825