Folder: Nanoindentation_Analysis/Nanoindentation Datenauswertung/data/Test Measurement

File: 1,1um
Quasi static measurement routine
Tip parameters (shape,radius, material...)
11.07.2022

Piezo position[nm]	MEMS displ.[nm]	Time[ms]	Cap [pf]
eoh
2,389974	-0,182262	0,198	-0,100155
2,399999	-0,488281	0,451	-0,100288
2,410004	-0,731297	0,702	-0,100393
2,420042	-1,036191	0,954	-0,100525
2,430010	-1,096945	1,207	-0,100552
2,440032	-1,280332	1,458	-0,100631
2,450022	-1,585226	1,710	-0,100764
2,459989	-2,255769	1,960	-0,101055
2,470019	-2,621418	2,212	-0,101213
2,480062	-4,145890	2,463	-0,101875
2,490043	-4,877187	2,715	-0,102192
2,499979	-4,937941	2,967	-0,102219
2,510019	-5,242836	3,219	-0,102351
2,519980	-6,585046	3,470	-0,102934
2,529991	-7,377097	3,720	-0,103277
2,540003	-7,316343	3,971	-0,103251
2,550017	-9,084956	4,221	-0,104019
2,560002	-9,388726	4,474	-0,104150
2,569989	-9,693620	4,724	-0,104283
2,579965	-11,462234	4,974	-0,105050
2,589990	-12,621058	5,226	-0,105553
2,600007	-21,461874	5,480	-0,109390
2,609907	-21,644135	5,731	-0,109469
2,620006	-15,791511	5,984	-0,106929
2,629968	-9,572113	6,236	-0,104230
2,639978	-4,390031	6,486	-0,101981
2,649987	0,609789	6,737	-0,099811
2,660028	6,280152	6,988	-0,097350
2,670020	13,170093	7,240	-0,094360
2,680009	20,425682	7,490	-0,091211
2,689981	27,375252	7,742	-0,088195
2,700005	34,935736	8,000	-0,084914
2,710009	41,215888	8,251	-0,082188
2,720023	46,642110	8,503	-0,079833
2,730022	51,824192	8,759	-0,077584
2,740003	57,433801	9,014	-0,075149
2,749991	63,774707	9,265	-0,072397
2,759976	68,956788	9,524	-0,070148
2,770030	73,774347	9,777	-0,068058
2,779968	79,749604	10,032	-0,065464
2,790029	86,090510	10,282	-0,062712
2,800027	92,430291	10,533	-0,059961
2,810020	98,223286	10,784	-0,057447
2,819994	103,100473	11,036	-0,055330
2,829966	108,954223	11,287	-0,052790
2,840044	114,441199	11,537	-0,050408
2,850018	119,684035	11,790	-0,048133
2,860009	125,110257	12,041	-0,045778
2,869965	129,195394	12,303	-0,044005
2,879991	135,658932	12,554	-0,041200
2,889979	140,780260	12,809	-0,038977
2,899964	145,780080	13,060	-0,036807
2,910004	151,876845	13,314	-0,034161
2,919987	158,522645	13,565	-0,031277
2,930020	163,765481	13,818	-0,029001
2,939983	171,447473	14,071	-0,025667
2,949998	178,276660	14,322	-0,022704
2,959963	184,861706	14,574	-0,019846
2,969942	192,543698	14,826	-0,016512
2,980004	198,884604	15,079	-0,013760
2,989988	205,591158	15,330	-0,010849
2,999946	212,724114	15,581	-0,007753
3,009943	219,004266	15,832	-0,005028
3,019974	226,503996	16,083	-0,001773
3,029991	231,990972	16,335	0,000608
3,039988	238,820159	16,587	0,003572
3,050013	244,062995	16,841	0,005848
3,059967	226,625504	17,095	-0,001720
3,069979	231,625324	17,347	0,000450
3,079967	236,259496	17,598	0,002461
3,089997	241,685718	17,848	0,004816
3,099964	246,136503	18,099	0,006748
3,109954	249,490342	18,365	0,008203
3,120024	253,940002	18,639	0,010134
3,129969	258,147771	18,891	0,011960
3,139956	262,964205	19,150	0,014051
3,149965	269,670759	19,402	0,016961
3,159957	275,096981	19,662	0,019316
3,169933	281,132993	19,923	0,021936
3,179929	286,864109	20,174	0,024423
3,189980	290,888492	20,428	0,026170
3,199973	296,375468	20,688	0,028551
3,209964	299,058765	20,939	0,029716
3,219962	304,789882	21,201	0,032203
3,229925	308,935772	21,482	0,034002
3,239930	312,959029	21,734	0,035749
3,249917	318,019603	21,988	0,037945
3,259931	323,142056	22,240	0,040168
3,269928	326,311384	22,492	0,041543
3,279955	331,738731	22,744	0,043899
3,289934	337,225707	22,996	0,046280
3,299939	342,651930	23,248	0,048635
3,309887	348,687941	23,500	0,051255
3,319919	353,687761	23,752	0,053425
3,329989	358,625702	24,022	0,055568
3,339961	364,051924	24,274	0,057923
3,349953	368,746850	24,526	0,059960
3,359931	374,295705	24,777	0,062369
3,369871	377,710298	25,036	0,063851
3,379898	382,892380	25,290	0,066100
3,389930	387,038270	25,540	0,067899
3,399922	391,672442	25,790	0,069910
3,409929	396,244735	26,045	0,071895
3,419870	400,085730	26,303	0,073562
3,429906	403,439570	26,555	0,075017
3,439908	406,914918	26,835	0,076525
3,449922	412,767542	27,085	0,079065
3,459926	418,377151	27,337	0,081500
3,469850	424,778811	27,587	0,084278
3,479879	429,290350	27,853	0,086236
3,489915	434,838080	28,104	0,088644
3,489908	434,350923	28,372	0,088433
3,489880	433,557748	28,627	0,088088
3,489894	433,436240	28,881	0,088036
3,489944	432,400049	29,135	0,087586
3,489926	431,972521	29,385	0,087400
3,489861	432,216662	29,636	0,087506
3,489897	431,790260	29,888	0,087321
3,489886	432,034400	30,140	0,087427
3,489970	431,667627	30,393	0,087268
3,489835	432,339295	30,644	0,087560
3,489863	431,851013	30,894	0,087348
3,489867	431,546119	31,164	0,087215
3,489856	431,424611	31,430	0,087163
3,489902	431,301978	31,680	0,087109
3,489875	431,301978	31,938	0,087109
3,489848	431,057838	32,190	0,087003
3,489919	430,509928	32,442	0,086766
3,489905	430,814822	32,704	0,086898
3,489908	430,631435	32,954	0,086818
3,489845	431,119717	33,205	0,087030
3,479900	423,803373	33,461	0,083855
3,469895	416,121382	33,711	0,080521
3,459896	408,926546	33,964	0,077398
3,449868	402,159238	34,215	0,074461
3,439892	395,025157	34,468	0,071365
3,429945	388,135216	34,732	0,068375
3,419937	381,123767	34,983	0,065332
3,409907	373,746670	35,234	0,062130
3,399882	366,979362	35,485	0,059193
3,389949	360,210928	35,737	0,056256
3,379888	352,468183	35,994	0,052896
3,369924	345,517488	36,246	0,049879
3,359913	338,627547	36,497	0,046889
3,349895	331,189696	36,764	0,043661
3,339960	324,483142	37,016	0,040750
3,329925	317,349060	37,269	0,037654
3,319888	310,398365	37,534	0,034637
3,309937	304,057460	37,784	0,031885
3,299952	296,314714	38,045	0,028525
3,289908	289,181758	38,296	0,025429
3,279932	282,291817	38,548	0,022439
3,269915	275,280368	38,812	0,019396
3,259891	267,719884	39,072	0,016115
3,249922	260,098646	39,323	0,012807
3,239918	253,392092	39,582	0,009896
3,229920	246,318764	39,841	0,006827
3,219947	239,734843	40,094	0,003969
3,209981	231,990972	40,346	0,000608
3,200020	225,407051	40,597	-0,002249
3,189907	218,089583	40,864	-0,005425
3,179948	211,810556	41,126	-0,008150
3,169941	204,371580	41,377	-0,011378
3,159988	197,299377	41,631	-0,014448
3,149920	189,738893	41,890	-0,017729
3,139960	182,727445	42,144	-0,020772
3,129950	176,812941	42,396	-0,023339
3,119941	168,034004	42,647	-0,027149
3,109946	161,265571	42,899	-0,030086
3,099967	153,766966	43,149	-0,033341
3,089927	147,242674	43,400	-0,036172
3,079982	139,682190	43,654	-0,039454
3,069971	133,280530	43,918	-0,042232
3,059965	126,024941	44,169	-0,045381
3,050008	119,441019	44,436	-0,048238
3,039944	111,757903	44,700	-0,051573
3,029933	105,295489	44,950	-0,054377
3,019966	97,308603	45,204	-0,057844
3,009964	91,211838	45,472	-0,060490
2,999975	84,077756	45,722	-0,063586
2,989984	76,273131	45,978	-0,066973
2,980000	69,628456	46,239	-0,069857
2,969968	63,287550	46,490	-0,072609
2,959992	59,994465	46,743	-0,074038
2,950005	57,799449	46,994	-0,074991
2,939953	54,263348	47,246	-0,076525
2,930027	52,251719	47,516	-0,077398
2,919949	49,386161	47,766	-0,078642
2,909983	46,399095	48,030	-0,079938
2,899967	46,215708	48,282	-0,080018
2,890011	42,069817	48,535	-0,081817
2,879991	39,081626	48,792	-0,083114
2,869976	36,704349	49,044	-0,084146
2,859997	34,630841	49,294	-0,085046
2,849999	30,668338	49,553	-0,086766
2,840009	29,997795	49,803	-0,087057
2,829999	26,827342	50,054	-0,088433
2,819982	24,204799	50,305	-0,089571
2,809999	20,852085	50,559	-0,091026
2,799991	18,840456	50,810	-0,091899
2,790070	16,278667	51,062	-0,093011
2,780007	13,718003	51,313	-0,094122
2,770034	11,096585	51,563	-0,095260
2,759992	8,170273	51,815	-0,096530
2,749981	5,426222	52,077	-0,097721
2,740005	3,780242	52,343	-0,098435
2,730000	1,158824	52,593	-0,099573
2,719978	-1,157699	52,853	-0,100578
2,710018	-4,023257	53,108	-0,101822
2,699948	-6,279027	53,359	-0,102801
2,689988	-9,327972	53,611	-0,104124
2,680000	-11,278847	53,862	-0,104971
2,670001	-12,803319	54,113	-0,105632
2,659961	-16,339421	54,365	-0,107167
2,649988	-17,863893	54,617	-0,107829
2,640026	-19,754014	54,883	-0,108649
2,629995	-20,973592	55,148	-0,109178
2,619996	-22,619573	55,398	-0,109893
2,609949	-23,899905	55,652	-0,110448
2,599993	-24,509694	55,910	-0,110713
2,590002	-22,741080	56,161	-0,109945
2,580002	-21,583381	56,420	-0,109443
2,570018	-17,985401	56,687	-0,107881
2,560013	-17,009964	56,939	-0,107458
2,550025	-16,339421	57,204	-0,107167
2,539990	-12,864073	57,465	-0,105659
2,529991	-12,498425	57,716	-0,105500
2,519994	-12,376917	57,973	-0,105447
2,510038	-11,278847	58,223	-0,104971
2,500037	-9,998515	58,489	-0,104415
2,489991	-9,816253	58,753	-0,104336
2,480014	-8,231027	59,005	-0,103648
2,470062	-8,291781	59,265	-0,103674
2,459966	-7,498605	59,515	-0,103330
2,449998	-6,462414	59,768	-0,102880
2,439962	-4,390031	60,020	-0,101981
2,430005	-3,536101	60,288	-0,101610
2,419990	-3,657609	60,539	-0,101663
2,409997	-2,134262	60,798	-0,101002
2,399961	-2,134262	61,050	-0,101002
2,390047	-1,645980	61,300	-0,100790

File: 1,5um
Quasi static measurement routine
Tip parameters (shape,radius, material...)
11.07.2022

Piezo position[nm]	MEMS displ.[nm]	Time[ms]	Cap [pf]
eoh
2,343871	0,000000	0,212	-0,098594
2,355856	-0,609789	0,533	-0,098858
2,367813	-0,549035	0,835	-0,098832
2,379874	-0,731297	1,138	-0,098911
2,391861	-1,645980	1,440	-0,099308
2,403898	-1,706734	1,741	-0,099334
2,415880	-1,950875	2,044	-0,099440
2,427920	-2,560664	2,345	-0,099705
2,439872	-2,682172	2,649	-0,099758
2,451898	-3,048945	2,950	-0,099917
2,463895	-3,048945	3,260	-0,099917
2,475839	-3,719488	3,591	-0,100208
2,487858	-4,390031	3,892	-0,100499
2,499892	-4,206644	4,206	-0,100419
2,511832	-5,548855	4,509	-0,101002
2,523869	-6,768433	4,832	-0,101531
2,535868	-9,206464	5,159	-0,102589
2,547837	-11,645620	5,474	-0,103648
2,559861	-11,522987	5,797	-0,103595
2,571867	-11,827882	6,103	-0,103727
2,583828	-4,572293	6,406	-0,100578
2,595869	2,744051	6,707	-0,097403
2,607880	11,157339	7,009	-0,093751
2,619853	19,814768	7,336	-0,089994
2,631874	27,863533	7,670	-0,086501
2,643857	35,545525	7,984	-0,083167
2,655859	43,227517	8,286	-0,079833
2,667902	48,715618	8,614	-0,077451
2,679850	57,312293	8,921	-0,073720
2,691871	64,994285	9,240	-0,070386
2,703883	70,969542	9,564	-0,067793
2,715858	77,797604	9,865	-0,064830
2,727923	84,931686	10,167	-0,061733
2,739888	92,248029	10,491	-0,058558
2,751906	98,831950	10,794	-0,055701
2,763877	105,661137	11,095	-0,052737
2,775843	112,733340	11,413	-0,049667
2,787867	119,988929	11,714	-0,046519
2,799866	127,792429	12,040	-0,043132
2,811839	134,621616	12,343	-0,040168
2,823824	139,865576	12,646	-0,037892
2,835801	144,682010	12,947	-0,035802
2,847875	150,596513	13,272	-0,033235
2,859865	157,424575	13,593	-0,030271
2,871876	164,985059	13,894	-0,026990
2,883872	171,265211	14,197	-0,024265
2,895831	177,057082	14,500	-0,021751
2,907879	184,556812	14,822	-0,018496
2,919880	191,019225	15,124	-0,015691
2,931821	197,176744	15,427	-0,013019
2,943856	202,602967	15,728	-0,010664
2,955839	208,943872	16,060	-0,007912
2,967867	214,431974	16,363	-0,005530
2,979859	221,199282	16,667	-0,002593
2,991847	228,576379	16,971	0,000608
3,003873	233,941847	17,274	0,002937
3,015849	240,404261	17,578	0,005742
3,027858	246,807046	17,881	0,008521
3,039815	253,025319	18,181	0,011219
3,051825	256,744807	18,503	0,012833
3,063850	263,695502	18,808	0,015850
3,075801	269,792267	19,112	0,018496
3,087831	276,682208	19,413	0,021486
3,099849	282,839727	19,718	0,024159
3,111809	288,875738	20,027	0,026778
3,123771	295,278523	20,329	0,029557
3,135812	302,045831	20,632	0,032494
3,147794	308,447491	20,959	0,035272
3,159758	313,019783	21,263	0,037257
3,171819	314,727643	21,567	0,037998
3,183857	320,336127	21,868	0,040432
3,195827	328,262259	22,169	0,043872
3,207775	335,701235	22,471	0,047101
3,219801	343,748875	22,774	0,050593
3,231821	350,578062	23,076	0,053557
3,243813	358,625702	23,380	0,057050
3,255781	366,430327	23,698	0,060437
3,267828	374,173072	24,003	0,063797
3,279772	367,892920	24,305	0,061072
3,291795	372,771232	24,606	0,063189
3,303798	379,112138	24,912	0,065941
3,315779	384,538360	25,227	0,068296
3,327765	391,366422	25,528	0,071259
3,339807	398,622012	25,836	0,074408
3,351786	403,621832	26,143	0,076578
3,363771	409,962738	26,467	0,079330
3,375778	416,730046	26,769	0,082267
3,387725	420,693674	27,072	0,083987
3,399755	427,765877	27,373	0,087057
3,411816	434,350923	27,673	0,089915
3,423751	440,326181	27,980	0,092508
3,435781	441,483880	28,281	0,093010
3,447738	447,398383	28,591	0,095577
3,459733	453,678535	28,899	0,098303
3,471752	459,957562	29,200	0,101028
3,483772	464,409472	29,501	0,102960
3,495796	471,542429	29,810	0,106056
3,507783	478,980280	30,111	0,109284
3,519741	486,906412	30,416	0,112724
3,531741	495,807982	30,717	0,116587
3,543717	503,794868	31,020	0,120053
3,555751	513,123965	31,332	0,124102
3,567730	521,415746	31,637	0,127701
3,579775	529,951667	31,937	0,131405
3,591718	539,097377	32,244	0,135375
3,603684	546,840123	32,551	0,138735
3,615735	555,741692	32,863	0,142598
3,627724	564,338368	33,174	0,146329
3,639733	573,300691	33,480	0,150219
3,651741	580,556281	33,783	0,153368
3,663723	590,311780	34,086	0,157602
3,675760	597,445862	34,392	0,160698
3,687747	605,249361	34,692	0,164084
3,699718	613,175493	35,012	0,167524
3,711672	621,345766	35,317	0,171070
3,723760	629,150391	35,619	0,174458
3,735751	637,137277	35,920	0,177924
3,747707	645,976968	36,224	0,181760
3,759715	654,025733	36,525	0,185253
3,771699	663,415584	36,827	0,189329
3,783722	672,804309	37,130	0,193403
3,795754	680,791196	37,430	0,196870
3,807716	689,876152	37,738	0,200813
3,819708	698,046425	38,047	0,204358
3,831759	706,947995	38,352	0,208222
3,843752	716,580861	38,653	0,212402
3,843710	717,372912	38,954	0,212746
3,843687	716,397474	39,269	0,212323
3,843756	716,093705	39,570	0,212191
3,843729	716,154459	39,873	0,212217
3,843716	715,971072	40,177	0,212138
3,843736	715,361283	40,495	0,211873
3,843726	715,605424	40,806	0,211979
3,843724	715,666178	41,108	0,212005
3,843711	715,971072	41,415	0,212138
3,843747	716,031826	41,718	0,212164
3,843748	715,179021	42,020	0,211794
3,843739	715,544670	42,323	0,211953
3,843703	715,361283	42,626	0,211873
3,843671	715,361283	42,927	0,211873
3,843703	715,239775	43,227	0,211820
3,843736	715,422037	43,530	0,211899
3,839697	712,495725	43,831	0,210629
3,827711	703,289261	44,137	0,206634
3,815665	693,290746	44,451	0,202294
3,803709	684,571438	44,754	0,198510
3,791765	675,243466	45,056	0,194462
3,779686	665,183072	45,374	0,190096
3,767725	656,464889	45,676	0,186312
3,755713	646,586757	45,979	0,182025
3,743708	637,319538	46,281	0,178003
3,731684	628,234582	46,591	0,174060
3,719712	619,455645	46,899	0,170250
3,707733	610,737462	47,204	0,166466
3,695752	601,226103	47,507	0,162338
3,683742	592,690182	47,810	0,158634
3,671758	584,031628	48,123	0,154876
3,659741	574,642902	48,430	0,150801
3,647729	565,497192	48,730	0,146832
3,635770	556,595622	49,037	0,142969
3,623707	547,694052	49,351	0,139105
3,611753	538,304201	49,660	0,135030
3,599725	528,976229	49,973	0,130982
3,587691	520,135414	50,273	0,127145
3,575711	511,112336	50,575	0,123229
3,563806	501,783239	50,881	0,119180
3,551784	493,125810	51,182	0,115423
3,539744	487,150553	51,485	0,112830
3,527762	475,749073	51,787	0,107881
3,515748	466,725995	52,107	0,103965
3,503737	458,129320	52,419	0,100234
3,491798	449,288504	52,722	0,096397
3,479782	441,118232	53,033	0,092852
3,467722	431,972521	53,334	0,088882
3,455809	423,315092	53,634	0,085125
3,443775	414,656538	53,936	0,081367
3,431721	406,059863	54,248	0,077636
3,419759	397,585820	54,570	0,073958
3,407783	389,171407	54,880	0,070307
3,395809	380,269837	55,187	0,066443
3,383811	372,222197	55,487	0,062951
3,371834	362,771592	55,791	0,058849
3,359857	355,028847	56,109	0,055489
3,347822	347,529117	56,410	0,052234
3,335787	337,712864	56,712	0,047974
3,323788	328,140751	57,031	0,043819
3,311811	320,336127	57,338	0,040432
3,299818	312,349240	57,638	0,036966
3,287843	304,362354	57,939	0,033500
3,275833	296,375468	58,258	0,030033
3,263754	287,778793	58,568	0,026302
3,251835	278,816469	58,871	0,022413
3,239815	270,341302	59,191	0,018734
3,227853	261,318224	59,493	0,014818
3,215805	253,087198	59,818	0,011246
3,203835	244,612030	60,119	0,007568
3,191827	236,807406	60,430	0,004181
3,179815	228,454871	60,731	0,000556
3,167822	219,187653	61,032	-0,003466
3,155823	210,651732	61,336	-0,007171
3,143850	202,542213	61,638	-0,010690
3,131829	194,433819	61,939	-0,014209
3,119828	185,043968	62,240	-0,018285
3,107836	176,873695	62,544	-0,021831
3,095845	167,911371	62,857	-0,025720
3,083847	159,680345	63,159	-0,029292
3,071865	151,144423	63,473	-0,032997
3,059856	142,365486	63,790	-0,036807
3,047829	134,316721	64,095	-0,040300
3,035837	125,293644	64,396	-0,044216
3,023852	117,123371	64,697	-0,047762
3,011833	108,405188	65,014	-0,051546
2,999850	100,905458	65,331	-0,054801
2,987816	92,308783	65,650	-0,058532
2,975840	84,626791	65,951	-0,061866
2,963857	80,053373	66,252	-0,063851
2,951868	75,481081	66,578	-0,065835
2,939839	70,969542	66,890	-0,067793
2,927861	69,261683	67,199	-0,068534
2,915889	65,542195	67,502	-0,070148
2,903881	62,981531	67,804	-0,071260
2,891797	61,396304	68,123	-0,071948
2,879840	57,128906	68,431	-0,073800
2,867909	55,604434	68,733	-0,074461
2,855838	52,861508	69,052	-0,075652
2,843866	50,361598	69,357	-0,076737
2,831925	46,642110	69,676	-0,078351
2,819869	43,898059	69,977	-0,079542
2,807851	40,666853	70,284	-0,080944
2,795903	36,032681	70,593	-0,082956
2,783858	33,838791	70,907	-0,083908
2,771837	30,606459	71,222	-0,085311
2,759868	27,436006	71,524	-0,086687
2,747879	24,204799	71,844	-0,088089
2,735880	20,424557	72,145	-0,089729
2,723856	17,498245	72,451	-0,091000
2,711864	14,876827	72,754	-0,092137
2,699846	11,767128	73,059	-0,093487
2,687890	8,475167	73,374	-0,094916
2,675919	6,950695	73,683	-0,095577
2,663888	3,414594	73,984	-0,097112
2,651827	0,853930	74,285	-0,098223
2,639892	-1,706734	74,592	-0,099334
2,627876	-4,572293	74,901	-0,100578
2,615876	-7,134082	75,207	-0,101690
2,603889	-9,937761	75,510	-0,102907
2,591876	-12,437671	75,812	-0,103992
2,579913	-13,413108	76,132	-0,104415
2,567861	-15,365108	76,460	-0,105262
2,555895	-14,389671	76,761	-0,104839
2,543919	-13,230847	77,081	-0,104336
2,531857	-11,950515	77,399	-0,103780
2,519881	-11,462234	77,721	-0,103568
2,507833	-10,426042	78,051	-0,103119
2,495935	-9,389851	78,355	-0,102669
2,483834	-8,535921	78,658	-0,102298
2,471896	-8,109519	78,979	-0,102113
2,459906	-7,926132	79,307	-0,102034
2,447850	-6,950695	79,627	-0,101610
2,435883	-6,219398	79,929	-0,101293
2,423886	-5,365468	80,258	-0,100922
2,411897	-4,572293	80,581	-0,100578
2,399924	-4,024383	80,901	-0,100340
2,387881	-3,536101	81,204	-0,100128
2,375864	-1,219578	81,507	-0,099123
2,363893	-1,768613	81,812	-0,099361
2,351843	-0,670543	82,138	-0,098885
2,343874	-0,488281	82,340	-0,098806